Class,AccX,AccY,AccZ,GyroX,GyroY,GyroZ
1,-0.024861305,0.046858903,1.093183603,1.917512879,-0.069497127,0.377467348
1,-0.042386143,0.074974013,0.834486066,1.610749833,0.007489868,0.239611399
1,0.056894686,0.022729762,1.167636742,2.003132054,0.06519044,0.249467739
1,0.07179961,-0.032432578,1.02516125,2.472309787,0.243244449,0.063362857
1,-0.068745868,0.223352627,0.927842414,-0.136505519,1.966219051,0.309914839
1,0.117783876,-0.078387408,0.872553851,0.045696104,1.321750284,0.230472664
1,0.049867949,0.156290267,1.00628879,2.202533657,-0.626782334,0.169955474
1,0.173195783,-0.045866162,1.020313691,1.592831886,-1.272989117,1.083632969
1,0.013102836,-0.016865008,0.968524637,2.659524698,-0.684980201,1.277611376
1,-0.086255775,0.069538419,0.85822307,2.883472355,-1.38979054,0.95821882
1,0.094483507,0.013777441,1.063308892,2.19372987,1.150730136,-0.175170822
1,0.100503719,0.039254498,1.123782072,1.651299364,0.978613315,0.085026654
1,-0.14796345,0.187265664,1.126607009,1.89516919,0.739841322,0.142315871
1,-0.035996611,-0.011757747,0.905457242,1.723062121,-0.020538443,0.460899047
1,-0.015282723,-0.149250235,0.986447559,1.76031002,0.666290722,0.253145082
1,-0.032914483,0.163025224,0.839673801,1.21839483,0.519732493,-0.026619157
1,-0.018171258,0.140838433,1.090062659,1.606319918,-0.03708065,0.329022699
1,-0.09777511,0.031570167,0.929072395,1.78687437,0.406789721,0.276649738
1,-0.172718184,-0.041523572,0.824597343,2.055453611,-0.056794275,0.232594277
1,-0.275269162,0.082219299,0.881494407,1.97629418,0.439951083,0.293921185
1,-0.107630177,0.075223523,1.125261851,2.218927639,0.613158671,0.067090797
1,-0.019742029,0.154697679,0.888726429,2.03674173,0.691836091,0.423425421
1,0.081884259,0.046338808,0.885660087,2.089192608,0.843378811,0.374972391
1,-0.018390193,0.019447304,0.896602287,1.388263882,0.356856307,0.326991334
1,-0.0951928,0.028065403,1.024335215,1.376878078,0.765290442,0.208252903
1,0.070342592,-0.07080141,0.875107493,1.688244658,0.242293556,0.265583407
1,0.097254688,-0.003563113,0.92795292,1.884473701,0.392343036,-0.332760562
1,0.017257628,0.165025208,0.777738751,1.805057569,0.374996438,0.337826342
1,0.138924472,-0.219492449,0.849939604,1.61687823,0.3674089,0.261692162
1,0.162911022,0.098877869,0.790311027,1.784903193,0.976726018,0.108678547
1,0.04751567,0.114424333,1.246963699,1.703152395,-0.130869863,0.433704577
1,-0.02144524,0.051622221,1.015006604,2.147827358,0.296516282,0.457094877
1,0.075312527,-0.024159441,0.980784207,2.221723446,0.119180826,0.536561074
1,-0.116472537,-0.009433523,0.959794316,2.084488378,0.099493702,0.677445944
1,-0.096316109,-0.001112536,0.947638764,1.355600128,0.825706989,0.499253075
1,0.187849625,-0.065914258,1.031571012,1.171055545,1.254939949,0.557105846
1,-0.119318809,-0.118355186,0.892360122,1.382494174,1.496582541,0.841895887
1,0.01151361,0.122100818,0.982023337,2.291982146,-0.011391062,1.186942122
1,-0.176690861,0.066931499,0.917116792,3.486707533,0.880565375,0.677304141
1,-0.049103002,0.165787482,1.018004542,2.757591091,0.413551993,0.258103711
1,0.082437414,-0.140035039,0.90924853,2.915145875,15.36254024,0.303294867
1,-0.044593705,0.005244105,0.836486705,3.918765922,1.744462704,0.469209433
1,0.083948929,0.086139572,0.884482287,1.404084015,1.37248477,0.675627204
1,-0.020846112,-0.01990879,1.178811153,2.378815126,2.423820019,1.335715719
1,0.167775104,0.179862819,1.031888914,3.081992149,4.264347859,1.044059
1,0.098323183,0.025873786,1.052974515,2.69448054,1.12444685,1.397085172
1,0.074060603,0.121795029,0.889529338,3.125186419,0.594683738,0.882809008
1,0.094523781,-0.040470348,0.832708702,2.189756671,0.911491889,0.846207395
1,0.015676554,0.114850991,0.868529251,1.382138694,0.020171562,0.744468662
1,0.118317129,-0.153199219,0.895461848,1.585011967,0.339179153,2.786555227
1,0.101010286,0.0267298,0.832910845,1.115189015,-0.344436618,1.633469863
1,0.099172636,-0.070489083,1.220770385,1.438667124,0.5460591,1.258897788
1,0.016341827,0.021603795,1.037056366,1.455278772,0.141695405,0.126684321
1,-0.265241664,-0.120011165,0.951681532,1.623024673,-0.640519276,0.060324984
1,-0.068792089,-0.115895182,1.000085993,0.591194109,-0.581489624,0.498027358
1,-0.025973065,0.058088528,0.984080819,0.211458994,0.195271715,1.094185542
1,0.106505137,-0.063812308,0.992508075,0.34097568,-0.696178614,2.762135221
1,0.160515196,0.02572426,1.023062692,0.688503817,0.496357743,1.604991177
1,-0.186195698,0.041219318,1.035413515,0.477071245,2.102786612,-0.014912565
1,0.060915546,0.109192649,1.117379415,2.735868707,-0.568850704,-0.099200235
1,-0.040789793,0.082225638,1.221660324,2.901376496,-0.4121738,-0.268698475
1,-0.149533668,-0.026465501,1.229056112,0.86277859,2.439842391,0.123784918
1,-0.173664989,-0.021632267,1.008746327,0.609324583,0.68792794,0.526794927
1,0.101984435,0.07247167,0.90295929,1.462669813,1.044820662,0.136455057
1,0.083891826,-0.098186933,1.068565367,2.252222275,0.222701488,0.27648868
1,-0.169921302,0.09853385,0.901633487,1.846914543,0.769488345,0.163902344
1,0.026367501,-0.222098028,0.935036369,2.147246259,0.086271465,0.256728278
1,0.136866923,-0.024923006,1.123067928,1.862016277,0.264008681,0.366011645
1,-0.17418998,-0.045867313,1.002664026,-0.607961142,-2.560285522,0.259510087
1,-0.181625764,0.074792966,0.86239518,1.436912172,-0.632628154,0.149033504
1,-0.062687268,-0.02478746,1.148134669,1.681270715,0.262161456,0.549098879
1,-0.102345475,0.039923,1.070616815,2.181390967,0.525488751,-0.000330432
1,0.057479467,-0.041460662,0.991867731,1.604294993,0.361757713,0.134490486
1,0.184989275,-0.037660443,1.072154918,1.377315973,-0.029243209,0.151708518
1,0.051879593,-0.108828358,1.081442516,2.177258282,-5.61400472,0.699732176
1,0.022357091,-0.083731195,1.00061061,0.559097258,0.98787331,1.206106995
1,-0.139690981,-0.043382433,0.89797218,1.959244508,0.87676954,4.70005932
1,0.118385593,-0.053037607,1.055836151,-0.552039506,-1.443238388,-2.910573463
1,0.01462997,0.018881468,0.892849534,2.384559354,-1.210162535,0.060585552
1,-0.066168399,0.08419902,0.852904953,3.561035608,-1.529922949,-0.542794663
1,0.125749113,-0.039719927,1.041308165,3.791874813,1.657142705,-1.014424193
1,-0.146080264,-0.074736049,0.984948085,2.144092767,1.701936118,-1.426336918
1,-0.061403258,0.04802892,0.943550321,2.566687901,1.136404534,-0.198248116
1,0.135063429,-0.027697404,0.980301333,2.929837349,0.445745851,0.791548679
1,-0.032048618,0.039953776,0.894073536,2.497940519,2.130041895,-0.133327938
1,0.117029957,0.01778893,1.128746872,-1.928078336,3.390165061,6.821896191
1,-0.208584706,-0.060931823,0.83306435,1.31211307,3.793999509,9.345219356
1,-0.058457661,-0.017893942,0.994642221,-2.68448391,0.957577125,2.150547328
1,0.074122391,-0.104782771,1.28071853,-0.719520261,1.941099383,1.999787587
1,0.05821804,0.049466272,1.054798102,-1.564624385,-2.79513031,4.779375255
1,-0.052171157,-0.00141844,1.086577494,-2.638360293,-6.421910336,-3.991216026
1,0.038662948,-0.003056788,1.102891913,0.732896745,-5.729039248,-8.977235857
1,-0.210986372,0.032812356,0.859692129,2.885160246,-3.326366431,0.264483786
1,-0.134716184,-0.0899146,0.968491726,3.359909268,-0.948758793,1.267524929
1,-0.168955206,0.042508171,0.861303115,2.854629144,-1.771420815,7.154210945
1,-0.043010543,-0.004990359,0.940097094,-1.291197675,8.751113675,-1.804333541
1,0.054318812,0.155620213,1.105665337,-2.664559877,6.007777626,16.08584003
1,0.136236237,-0.02754985,0.963842746,3.829626072,3.403607566,15.97534813
1,0.146771137,0.027403734,0.882089568,2.250416583,3.885100697,-3.305473268
1,-0.051700925,0.257381729,0.980710874,3.442480365,-0.811212442,11.79107762
1,0.022055693,0.0741698,1.073788116,2.719184969,1.778093903,1.534517749
1,0.190159227,-0.024178819,1.019573233,7.289283877,-1.793608735,2.962905298
1,0.059289655,-0.006816439,1.132969154,2.615776303,0.771851438,0.02333983
1,0.131056019,-0.042041415,0.886477767,5.267131932,0.524260042,0.59858433
1,0.178063133,-0.005944877,0.888551075,2.664586963,0.741470224,2.981169766
1,-0.029369952,-0.032591929,0.871264168,5.228298193,2.711333043,5.626052593
1,0.207349067,0.152947442,0.956231474,2.02203106,3.696266947,6.033682906
1,0.033714263,0.003595989,0.838588988,3.500513174,5.268386767,5.160367527
1,0.086891229,0.131031063,0.995265857,-0.04712898,3.165104393,4.358769618
1,0.058882847,0.004274296,1.092658353,3.009508161,5.339414126,-5.759092928
1,0.035692851,0.036417824,0.930636973,5.868500664,1.887583774,4.907649185
1,-0.094622769,-0.31860312,0.863033642,7.669574211,4.97832367,-6.147254987
1,-0.111982452,0.121096535,0.937017438,3.713278435,0.961831495,-2.349603463
1,-0.114553048,-0.109441401,1.047374448,9.12160643,1.260955837,-5.272028142
1,-0.058157016,0.090932651,1.060109022,6.7053251,0.22955833,-3.222770263
1,0.116528207,0.079168124,1.03755525,2.8369489,-2.124284681,-3.552763534
1,0.013214768,-0.020585587,1.198495977,-1.088916346,-2.568799988,-5.104434636
1,0.073566167,-0.003830769,1.009412342,1.114687255,-2.443659834,-2.739897251
1,-0.057548349,-0.266635858,0.978281977,3.829057202,0.762235989,-9.707384246
1,-0.208481979,0.02204187,0.993003037,-14.16292935,-4.901042997,-11.67901271
1,0.082996245,-7.50137E-06,0.983910301,1.466044049,-2.474739539,0.504644194
1,-0.017850907,0.019972375,1.089798148,3.265761815,3.86373027,10.63547499
1,-0.01291043,-0.092522946,1.073959523,0.201427466,0.325582431,10.23640069
1,0.153934118,0.006245383,1.043037689,2.675199173,-1.451271891,1.730576142
1,0.011797689,-0.001377663,1.028142613,-0.545092963,-2.596912332,2.477635316
1,-0.115411285,-0.099913691,0.964273375,-1.552411979,-3.564655565,-0.687903271
1,0.21762727,-0.161001057,1.026819951,-2.231421012,-1.669270903,-0.943996747
1,-0.311632588,0.026827666,1.082843527,-0.96634524,-2.19835844,-2.373453115
1,-0.040991598,0.117572623,0.960414661,-1.783217375,-0.986772798,-3.219287622
1,-0.003721408,-0.135645928,0.732180415,-0.398475949,-0.627309441,-3.933640707
1,-0.044348782,-0.059931237,1.064127919,-1.051148865,-0.959240812,-4.489292559
1,0.065203884,-0.102347888,0.745687939,-0.291905765,-0.356041743,-1.621670486
1,0.164645896,0.242361639,0.928877662,0.5161987,-2.129857535,-0.848636532
1,0.129476859,-0.013239539,1.082357935,1.38970074,-0.415394272,-1.882794879
1,0.19028382,0.122523258,1.046938389,1.292176818,0.459314515,-4.699913525
1,0.111022687,-0.069696943,1.066517361,1.707538741,-1.436327084,-4.257135974
1,-0.056418872,-0.147574437,0.903856193,0.21770634,-1.11534115,2.131501602
1,-0.085991855,0.005134791,0.99715446,0.484275115,-0.077214476,2.680194808
1,0.087541786,-0.041149531,0.99449196,1.10197136,0.009740683,-2.217954773
1,-0.056456608,0.009302576,1.016069669,1.10193757,1.205992109,-3.995860048
1,0.143578384,0.155038415,0.932128142,-0.170862665,0.512131092,-0.399554584
1,-0.052073014,-0.083111179,1.092338845,0.000472622,1.688323385,-1.23220302
1,-0.162717995,0.037412246,0.922184081,-0.283349703,-0.010745688,1.935792903
1,-0.030507954,-0.114155895,0.918823913,-0.745420704,0.798163868,0.697540174
1,0.019705846,0.103334783,1.069779522,-0.038561331,1.11378918,2.396141488
1,-0.112348092,-0.040007834,1.066035072,-0.545478234,0.27265889,0.01097283
1,-0.088131834,-0.010045147,1.122653491,0.255142164,0.376571508,3.843554368
1,-0.056438032,0.092558142,0.894767307,1.199568886,2.250450774,2.193186669
1,-0.05446548,-0.041303338,0.972835283,2.908022214,3.645191779,-2.075998385
1,-0.059520948,0.21742639,1.129375708,2.471254696,2.535456057,1.161422726
1,0.067066626,0.11643325,1.061993377,2.464241241,1.613603354,0.053909252
1,-0.168374628,-0.037858566,1.172103259,4.947993287,4.772738449,11.57085121
1,-0.003263867,0.093176361,1.003923291,1.998835811,1.236323807,3.574323409
1,-0.153043556,-0.186307149,1.189368897,2.552960047,1.326259299,0.208712836
1,0.128808019,0.104145932,1.020253658,1.844349023,-0.571052197,1.975720763
1,0.024270542,-0.007502347,1.008912589,1.844544558,1.08557625,-1.660165486
1,-0.031023467,0.181152092,1.071950304,1.264712657,-0.75192101,-0.532858918
1,0.253437902,-0.000669707,0.726781391,1.551516681,-2.447068561,4.276988246
1,0.132741627,-0.106507864,0.893026973,2.666295449,-1.372614649,6.561782154
1,-0.021718536,0.03496793,0.971476458,1.443071092,-1.412583848,3.679131529
1,-0.004286377,0.126058684,0.946263127,2.322609806,1.043335157,2.450257489
1,-0.066583925,0.038482117,0.960206549,1.196356361,2.929819278,1.338364599
1,-0.142407829,0.038254653,1.108746689,1.463416465,2.592617087,-1.958176311
1,0.07182697,-0.118147488,1.224822874,1.638244882,2.117057504,-2.663519027
1,0.027401686,-0.11379503,0.919975469,3.000875645,2.079193635,-3.061324593
1,-0.050127284,-0.157151095,0.9722239,2.100766813,2.887375749,-4.530588746
1,0.022927122,0.012969343,0.940118281,2.686449599,3.484248371,-2.326299776
1,0.1380671,0.023605145,0.966180394,2.712615697,1.676128102,1.267262194
1,-0.093089365,-0.054083929,1.094268034,1.660052148,0.125736188,4.044515924
1,0.067163201,-0.015789793,0.834689583,1.62239021,0.32807629,0.108900662
1,0.095498072,0.018649315,0.687326527,2.310078616,0.573672462,-1.230125522
1,0.15163432,0.000503764,1.005230464,2.943934639,1.160134601,0.366674976
1,-0.146410915,0.153070131,0.901218056,4.681971625,-0.116802739,1.030028915
1,-0.040194082,-0.029268573,0.99350761,4.28468746,-1.573623571,2.609640484
1,-0.142314362,-0.132690436,1.01622378,4.631846676,-2.49042544,2.956663982
1,0.172420767,0.041503206,0.906237765,3.584886811,-2.190200471,2.5824566
1,-0.104430378,0.079622341,0.891529763,2.993910726,-0.748467502,3.625881671
1,-0.020491562,-0.095301547,1.014410734,4.131393955,-1.390364978,2.292869614
1,-0.034530215,0.058703702,0.98089679,3.371004967,-0.796588386,0.629954706
1,-0.087160621,-0.053270937,1.057857751,0.850899505,0.72127907,0.229812681
1,-0.250010951,0.016551553,0.996341133,0.842383493,-0.646887426,-2.193513498
1,0.102265562,0.119621404,0.988617478,1.041531622,1.699949685,-0.770605173
1,0.102028599,-0.132845632,0.992907418,2.513373071,-1.438729692,0.536178553
1,-0.062399847,0.166060552,1.084799876,1.561694098,0.520745147,0.290141645
1,0.094528379,-0.171333264,1.086870703,2.163931203,-0.193213215,1.899609914
1,0.253034874,0.052172546,1.036511021,0.258718096,1.791835489,1.180343544
1,0.063006186,-0.079471074,1.051849287,-0.289339038,0.733957366,0.321030244
1,-0.159080555,-0.023237633,0.914237218,-1.528525188,0.892865758,0.294866576
1,-0.098438476,0.084497418,1.038822681,-4.41712257,-1.176721194,2.112047659
1,0.043284021,-0.031026857,1.018333351,-7.585912746,-4.613234216,2.800055608
1,0.053575343,0.065944277,0.93980662,-7.768017185,-4.371994053,6.376304684
1,-0.059659299,-0.010758011,0.814526569,-3.52929422,-1.124112387,2.497243935
1,0.205600666,0.041483144,0.842340388,-8.856056501,1.918472642,0.506096654
1,-0.033857208,-0.093855243,1.018460319,-18.64818592,6.381571994,3.809014103
1,0.134642639,0.169697985,0.979534265,-48.5440358,3.695259139,8.775177197
1,-0.153370762,0.007829346,0.789322872,-19.76478738,-6.394915668,6.439649363
1,0.038292822,0.149971932,0.983379616,-4.590847824,-7.950744926,7.781684305
1,-0.081043943,0.241018299,1.04149334,-4.707811675,-1.424623981,7.4683695
1,-0.101752355,0.188545018,0.827512179,-12.09223348,-4.316097327,6.31625486
1,-0.14864055,0.20502608,1.099310014,4.551888595,-2.49143688,6.018917638
1,-0.060878438,0.057728742,1.067834108,2.41829868,2.47481172,6.417628903
1,0.055718192,0.19450421,1.011735537,2.130109762,2.071703215,5.117977994
1,0.046168185,0.134442408,0.953684869,6.150849294,3.603083989,3.240195158
1,-0.049010682,-0.000458189,1.021028879,6.249877249,2.337717122,4.557643009
1,0.069534669,0.035184933,0.925177827,6.574264614,7.472612705,-0.506889808
1,0.121504898,0.203306814,1.041155416,0.118665087,5.870762676,-0.129909517
1,-0.063061889,0.254378331,0.79535616,8.328022916,2.744947563,-2.09913915
1,-0.060707096,0.195881632,0.856696178,10.75699501,-2.262572748,-2.043351651
1,0.115484434,0.17870046,1.052654947,9.720685157,-0.205382527,-1.619295285
1,0.083114634,0.174417433,1.008075041,18.90473882,-5.011205883,6.581929869
1,-0.045729195,0.098573253,0.761551286,32.76060758,-22.31671297,2.284368122
1,-0.01281267,0.173878356,0.857300972,38.54447151,-15.24277583,8.854051221
1,-0.117425541,0.03574873,1.075257093,19.30665888,-0.504769963,-0.327352232
1,0.036341505,-0.094347792,1.122563578,19.42512246,-1.459843862,6.87610321
1,-0.152678715,-0.035386414,1.024207321,19.78812642,-0.038119881,7.961225424
1,0.112340753,0.019711704,1.008792958,34.2661756,0.450265721,3.393439502
1,-0.222840334,-0.125672753,0.937312044,36.46927592,2.652230632,4.668868153
1,0.126524899,-0.051353506,1.113910942,48.83307344,10.82188694,12.38562098
1,-0.035791671,-0.240896711,1.022168959,62.75148365,-0.782874566,5.560373802
1,0.024500224,-0.301822293,1.089515401,31.88988117,14.78454639,-8.174248972
1,0.011718489,-0.266838337,1.045561518,12.51295057,11.96202206,-10.10596691
1,0.090048946,-0.263765022,0.867880727,-0.571179765,15.08625774,-7.289099458
1,0.017131261,-0.487103789,1.034527777,6.583056077,2.891206903,0.825647823
1,0.068475429,-0.349659568,0.78544815,0.084060821,4.284214929,-2.557245878
1,-0.061925537,-0.236603536,0.875831672,0.650471378,-2.209718124,0.885673037
1,-0.009379057,-0.276261663,0.973695568,4.406002829,1.737419935,-2.120936995
1,0.005833183,-0.414899395,1.003735465,7.249578771,0.384581714,0.953555388
1,0.066758389,-0.42541262,1.020117477,0.950239034,-3.631541344,-20.6910221
1,-0.114010125,-0.33978624,0.939699821,10.65400187,-2.619217579,-23.28509352
1,-0.10581627,-0.341019352,0.998582951,18.4841538,1.202040699,-7.244961956
1,-0.108341113,-0.340414344,0.89017246,-4.318472288,-1.790365507,11.10423036
1,0.155874979,-0.329920703,0.834246971,-11.68281366,-0.824294961,3.700762835
1,-0.11560166,-0.318583632,1.019074206,2.858646717,-2.356724806,-7.534910641
1,-0.292568813,-0.244609506,0.888787355,-25.96571648,-8.303013791,-9.939861969
1,-0.159438055,-0.307028304,0.985032847,-35.45339794,-13.47971527,-1.344166396
1,0.091588487,-0.1687056,0.987664332,-16.31052743,0.073376561,10.75997891
1,-0.158560073,-0.170487666,0.898847114,-23.83014248,-1.810690969,5.805279064
1,-0.321564674,0.059783412,0.929814567,-6.567656175,10.57645894,-1.050632629
1,-0.123668938,0.029559718,1.046742484,-9.575260698,10.86908947,-0.910069357
1,-0.083053622,-0.048471169,0.962396352,-7.441620673,3.218873471,0.047730064
1,0.033054746,-0.249184959,0.839058324,-11.12533921,1.754753664,6.027385994
1,-0.157376874,-0.003496659,0.965428437,-13.7992848,-0.199119822,-4.707971748
1,-0.197098558,-0.260044222,1.147377239,-13.25778886,2.241035567,-2.112754856
1,-0.038305625,-0.046395785,0.941097952,-17.69190079,0.667481327,-3.648174801
1,-0.229262426,0.005900555,0.995341782,-20.96785533,2.253152324,-2.287432474
1,0.289658481,0.106922932,0.956862742,-22.93188541,2.966383343,-4.070551972
1,-0.134969992,-0.070064226,1.028213241,-14.44067158,2.623306069,-1.019510833
1,0.23961532,0.057333185,0.919854744,-7.125418598,3.060787147,1.328633405
1,0.054294702,0.231426838,0.919006094,-3.50491311,0.575886684,-2.012402661
1,-0.139398806,-0.088274392,0.883084869,-4.53421019,2.586082294,-4.386725359
1,0.03589866,-0.032648862,1.001888126,-0.178571523,3.657647654,-2.597569894
1,-0.018668272,0.00768713,0.788739691,-0.274035452,4.834122334,-1.152673764
1,-0.136122036,0.18545709,0.99171813,3.099168334,0.577448851,-3.796506651
1,-0.128255448,0.062707042,1.131832076,3.093624281,-0.690238133,0.92255691
1,-0.033148727,0.031467549,1.043602777,2.952660433,0.598345453,4.171867006
1,-0.016254041,-0.071440454,1.10708572,2.976693928,1.921722153,7.354995216
1,0.002810967,-0.029919467,1.140532039,-2.144141595,4.719827659,0.46506382
1,-0.007352267,0.070506208,0.967370279,-0.475299556,2.184858912,0.987955814
1,0.095243672,0.184822226,1.093525344,1.329616211,1.954929511,0.724892871
1,-0.123507682,0.137008913,0.942921555,-0.699263007,-0.478972277,1.979892334
1,-0.232041658,-0.02839929,0.940196653,-0.815316838,-3.917227993,2.038811624
1,0.067371109,0.106540542,0.984034289,1.655922354,-3.326942066,2.82548864
1,-0.089031809,0.032647473,1.025927221,-1.917741972,-1.68029117,3.152350533
1,0.123739693,0.068960498,0.940403354,2.294418735,-2.894769605,3.796063486
1,0.079331393,0.133165191,1.057833679,1.229400679,-12.08688237,2.586087704
1,-0.006507506,0.115546544,0.95221206,-1.963843227,-14.93551263,2.990244887
1,0.053560725,0.251248728,1.026711652,7.031677585,-3.700550476,2.243168619
1,-0.081111626,0.289381952,0.926752273,2.958756518,-3.372891363,-1.705373213
1,0.030296589,0.083260237,0.934065774,0.05670812,-8.423114233,-0.950693292
1,-0.087840187,0.127205067,0.95007513,-0.040553105,-7.628779961,-2.624182306
1,-0.113632621,0.149845781,1.143939831,-1.830451185,0.501893002,-1.494844904
1,-0.176440195,0.071744872,0.990780984,-2.755361648,6.227583178,-1.180205466
1,0.039833421,-0.120485551,0.904729388,-3.241231477,1.665922011,-2.142326271
1,-0.09465731,0.129930062,1.018145097,2.119811301,7.943161953,0.874814839
1,-0.072414206,-0.060966398,1.076243668,1.776345853,-0.165305133,2.241478736
1,0.103117286,0.109503626,0.945311533,3.6180765,-2.291379936,6.340457776
1,0.071859738,0.075564352,0.961503618,2.990138363,5.332800919,3.369480236
1,-0.107374659,0.146981015,1.046269951,1.924333598,-0.327455322,3.738426991
1,-0.117877993,-0.032568693,0.832418068,1.116451789,3.333001799,1.747644275
1,-0.138152695,0.067104051,0.943568449,-1.610254224,-0.013638273,2.845958423
1,-0.034309949,-0.001637993,1.006034223,-0.593608208,-2.606857645,4.205266084
1,0.004662284,0.075293115,1.093928419,0.71078981,-3.470068649,7.828156313
1,-0.079593579,0.376806669,0.784170477,3.897570721,7.410352382,7.355145382
1,-0.058226603,0.000283971,1.077675891,2.597590192,7.615558022,6.391355344
1,-0.126517064,-0.181550269,0.904621688,2.380335711,5.519629712,3.840043808
1,-0.073104089,-0.043086925,0.974679429,6.975674527,-1.490322178,-2.546442849
1,-0.081569447,0.067333212,1.062794264,4.857201675,-7.639970353,-6.245423676
1,-0.093420505,0.175788965,0.985779219,7.552740476,-0.877632273,0.861039941
1,-0.221580136,0.181938158,0.984725569,6.164194869,11.83073025,0.552516205
1,0.003280507,-0.019561897,0.753138838,4.57197491,25.35282318,1.76551674
1,-0.157625615,0.113419248,0.80072929,17.86273623,6.865311029,-1.195060508
1,-0.19625456,0.127772586,1.051109982,15.85524837,10.6550307,-1.302250424
1,0.074188258,0.333861761,0.766211356,5.113057475,20.8870703,-6.348748352
1,0.068139882,0.153636989,1.04960477,15.93485106,4.0783846,-0.668452651
1,-0.095054723,0.128956461,1.042636507,4.462430208,-4.194537996,-3.52161966
1,-0.15828153,-0.13521052,1.085392025,3.145856069,-3.202415501,-3.927424628
1,0.076530066,0.114455063,1.130723356,-8.511860211,2.80524872,-11.29377338
1,-0.1529616,-0.094346005,1.166725115,-9.661187033,-1.858095354,-7.26504688
1,0.005743117,0.237854309,0.83427688,-6.643520476,1.710812505,-5.937000081
1,-0.079705638,0.02708273,1.12737737,-3.944021062,4.023416134,-3.668023543
1,-0.064003017,0.055291354,1.099858664,2.112735133,4.276407826,-3.483814919
1,-0.082456459,-0.158732911,1.007717483,8.400609396,-9.86817481,-0.796619722
1,-0.020951202,-0.129813818,0.814070907,6.453914268,1.085138935,0.164474445
1,0.051862266,0.197251354,1.005404015,1.837586999,-1.522164899,-8.026409231
1,0.049291851,-0.042916684,0.888839595,-6.672372334,1.290124217,-6.943279743
1,-0.081548591,0.189099283,1.198629207,-0.751769628,-1.766399483,-7.778390713
1,-0.064748372,0.02308475,1.168444483,-9.660176464,4.503818562,-2.783123459
1,-0.054732643,-0.00757672,0.94147268,-5.176592924,-6.465542543,-2.085447508
1,-0.117872198,-0.064973955,1.039573814,11.31162927,-3.396133497,-5.153250549
1,-0.0283554,-0.076452868,0.957157105,-0.177801002,-4.373938908,-5.140086989
1,0.019567615,0.09576435,0.959915818,3.978972015,7.3533924,-7.865969071
1,0.04887433,0.046901147,0.910561144,-0.94313233,6.146550811,-3.089138293
1,0.09496849,0.013061797,0.964759184,-10.79252749,9.395139229,-0.020066753
1,0.288308375,0.204376459,0.97504234,-15.32071595,5.062218629,-0.862143845
1,-0.011112398,0.105355088,1.054946777,-6.097418864,-6.448564745,6.2248747
1,-0.018871525,0.06062771,1.028898439,-11.38277016,-2.386120403,-2.233252784
1,-0.062437316,0.137555693,0.785706625,-2.443526207,0.581490567,-4.585800243
1,0.087850625,0.191542346,1.07386185,-3.578187973,-3.618558433,-6.273266188
1,0.045852667,0.047786663,1.023951568,-8.368859253,-2.839531174,-4.335836634
1,-0.099223269,-0.030179602,1.021580826,6.01487445,-6.671411426,-1.016695171
1,-0.057073393,0.023809748,0.721609613,5.386786222,-3.717303674,-0.893885378
1,-0.019878722,0.133765755,0.957437552,21.73692882,-5.198771904,0.260051752
1,-0.071222633,-0.0315544,0.995523474,-4.511640331,-1.130063214,0.890434827
1,-0.083175109,0.116349608,0.924292296,-8.532064387,8.650273041,-0.384674227
1,0.053105305,-0.008354625,0.868292324,-4.806614573,5.596843493,1.115497077
1,-0.072947329,0.038841919,1.112609226,2.069687803,2.589275077,5.692103074
1,0.375732719,0.088617638,0.873955671,3.734243354,-0.405221018,5.349910331
1,-0.156199807,0.224871641,0.810886557,2.576311385,-0.365495317,5.448242096
1,-0.155626059,-0.099646181,0.970641952,5.166922673,1.445579728,12.89331797
1,0.038843115,0.036793913,1.046065848,9.477684966,2.234331046,21.66401196
1,0.299497092,0.048753012,1.037140001,7.949472643,3.32967321,18.86750773
1,0.102998251,0.170889237,1.014130988,4.688758998,3.00688974,14.21586329
1,-0.00131335,0.156977598,1.083820396,7.111495648,-2.77838414,14.1844634
1,0.024816049,0.108096349,0.73922886,3.236673873,-1.093016446,9.875940366
1,0.048665431,-0.045297423,0.860073038,0.472107087,-1.398279853,-2.048439606
1,-0.182565367,0.142665123,0.97919908,0.386872563,1.876895229,0.867013981
1,-0.124985449,-0.000357296,1.03396444,1.001980221,0.164276776,6.932987899
1,0.083374653,0.095238704,0.93162515,3.503701886,-3.044562297,0.306334953
1,-0.0802808,0.023415024,0.868148751,1.272362479,-3.67315396,2.144122181
1,-0.122901509,0.066934017,0.97206986,-3.757071789,-5.597439222,-7.699390642
1,0.095404664,0.233978385,0.945744343,-5.264082485,-3.744639218,0.742098233
1,-0.079557949,-0.021973595,0.973637248,-1.561944312,-4.979485139,0.365274566
1,-0.13794155,0.122994027,0.894583769,-7.76840655,-7.82745299,-5.488172044
1,0.007451072,-0.015215859,0.941659103,-13.30849286,-1.878277515,-5.288112957
1,-0.096624248,-0.065730683,1.087725415,-14.04068657,1.010907841,-2.543095291
1,0.069294818,0.173957497,1.108734914,-12.89889312,-3.203370675,5.201363144
1,0.155573114,0.109835403,1.116458721,-12.6515251,15.18798124,-1.297267438
1,-0.124435174,0.093121957,1.033373136,-11.96298064,8.441696742,6.495876034
1,-0.078590849,0.272460477,1.095201462,7.64046874,0.042024539,1.379064066
1,0.069502836,0.262803625,0.905732793,1.066207673,5.993122444,0.700884711
1,-0.263156438,0.22426646,0.897363679,16.04599243,-0.950470573,1.445949483
1,0.277235832,0.268770205,0.888632599,2.104161603,0.598000628,-1.735788191
1,0.02731549,0.111678062,1.093260102,14.7227012,5.528572843,3.634739756
1,0.057777876,0.239048921,0.91656986,3.903476666,5.628840913,1.234984519
1,0.00566622,0.179723786,1.029426988,2.520198014,-0.180072333,2.800066483
1,-0.045499526,0.255132461,0.930555258,3.180522008,-13.66026558,3.75984373
1,0.074055975,0.164947145,0.877153731,6.849015484,-14.63085613,1.211539965
1,-0.185527092,0.11690484,0.941415567,5.882696293,-16.45802838,-0.727057031
1,-0.092263508,0.302697972,0.866505786,10.82253094,-5.186158054,0.776358647
1,-0.048297222,0.144585062,1.119765232,11.93227002,15.54422708,-0.049631778
1,-0.154065931,-0.082315668,0.835942197,12.46427626,21.09730998,-1.099343397
1,0.096364123,0.114828842,1.031751248,8.73955937,11.03335006,-0.45276299
1,-0.024197518,-0.057177574,0.918884659,9.078094139,11.81698948,3.653240997
1,-0.13292749,0.178124315,0.970395506,7.949069493,9.063969278,2.311554866
1,0.083434793,-0.148674693,1.096554812,6.014146037,7.288927647,1.465346552
1,-0.030862386,0.143067761,0.870386518,4.077550659,3.813562914,-0.456291903
1,0.139752314,0.096087028,1.095815468,4.800505894,-3.484725703,-0.248407558
1,-0.088296942,-0.099309851,1.010862291,1.468229444,-4.873913236,-1.863298919
1,-0.088519042,0.228048792,1.015648544,-0.368594488,-2.886896458,-0.902951925
1,-0.04374135,-0.052306815,1.187118296,4.128149453,-0.256269811,-1.163713329
1,-0.161099014,0.097191871,1.016753133,1.481236107,5.451462853,0.016235453
1,-0.137979087,-0.010000536,0.901794072,2.035039233,0.721589363,1.310868827
1,0.01890094,0.023787386,0.940176599,2.814952612,8.235381917,1.009743868
1,-0.157156574,-0.096143966,0.928164291,3.014783837,8.12909153,1.276732028
1,0.001263102,0.065499491,0.986997477,4.142155086,5.092554769,1.960350203
1,0.061613277,0.05126902,1.231867436,1.701983607,2.431597651,2.736740685
1,-0.035680648,0.133429934,1.068317142,1.525170657,0.052291682,-0.531110331
1,0.152944738,0.157734807,1.07478851,1.418656332,2.24082782,-2.282571431
1,0.064687091,-0.057478479,0.991946609,0.952569845,-0.212031931,-1.110237177
1,-0.012931906,0.074689587,0.907350873,1.275527401,-4.187406899,0.085019598
1,0.000174215,-0.014875023,0.862038529,-0.357906531,-9.138488255,-0.50304588
1,0.000330168,-0.093066694,1.034048772,-0.448170783,-3.340745133,0.546761612
1,0.039169583,-0.111159731,0.96831162,2.959013464,3.144360171,-0.859289781
1,0.151553856,-0.197691826,1.049768908,3.804269322,5.638548227,-0.023789125
1,-0.018411703,0.084182592,0.84193431,1.544082445,3.69526948,-0.409665216
1,-0.083198138,-0.119764424,1.267953857,2.952681017,2.3068257,-0.102488713
1,0.049652223,0.063509333,1.007393246,1.839546554,-0.276500703,0.105429594
1,0.076571253,0.197128384,1.209050304,2.401545427,1.109721075,0.747081738
1,-0.011517558,0.007984531,0.944678631,1.539721149,-0.815111428,0.035537089
1,0.138179664,0.054549159,1.129904869,1.635770332,1.718250235,-0.362942666
1,-0.300485656,0.120482512,0.900699656,2.294781571,2.773656909,0.176131087
1,-0.053607552,0.271522975,1.043028998,0.162500307,-2.534707791,0.412212614
1,0.237851901,-0.047426087,1.000666321,-0.531963603,-6.433555718,1.418596039
1,-0.04973254,0.099093956,0.744564718,1.469018497,-9.005198786,3.337116346
1,0.114469413,-0.084193132,0.765522757,3.681581123,-10.66931166,3.167185157
1,0.042887871,0.100033345,0.904904719,4.666955785,2.298248492,0.288777827
1,-0.006965765,-0.199054277,0.855211681,3.522996496,-0.08858649,-3.10738567
1,0.019410534,-0.199258007,1.012625947,-3.760331307,1.981516047,0.02978667
1,0.054317295,0.092275354,0.817357485,4.229028072,4.092015773,0.662401661
1,0.066692332,-0.063720474,0.888611739,-0.468517927,2.690602343,-1.484144881
1,0.022959931,0.063183275,0.984818524,0.413179387,6.442104375,-0.92474277
1,0.029400159,0.006538736,0.96701107,-2.595706607,4.524927209,-0.376523552
1,-0.082215803,0.011809115,0.754188673,-2.086277799,6.227307171,-0.426469497
1,-0.021387121,-0.093483613,0.97258661,0.120348495,9.670484285,1.496237048
1,-0.085086649,0.055857013,0.975591213,0.622327596,18.90510387,-2.244845695
1,-0.082995682,0.142692152,1.010456983,-0.408126719,18.0500526,-1.474342743
1,0.052572751,0.315129466,0.911962389,-4.010256402,-6.882839129,2.943858173
1,0.080189994,-0.031135675,0.888321074,12.04817074,1.513260713,4.481980595
1,0.064991059,0.100349386,1.044479356,15.96897298,-12.42942908,4.346687117
1,0.075504725,-0.033606097,1.147216633,18.18476417,-3.8564089,0.99376033
1,0.158074624,-0.004116207,1.077431593,6.340586697,-3.348389215,-2.905472985
1,-0.085264123,-0.034301343,0.878302214,7.082925718,-4.269626198,-0.506065292
1,0.005269731,0.016582751,1.014562403,5.5699003,-4.599951895,0.524994733
1,-0.115677595,0.162472964,1.097594695,3.463791805,-6.560194871,2.067443522
1,0.058828342,0.08703429,0.997779164,-6.92155077,-20.4349845,-3.676085016
1,0.019613502,-0.027470888,1.147434612,1.783954976,-0.352216866,4.184247565
1,-0.01787841,-0.068303909,0.953093722,2.132435075,-0.014262506,4.063136572
1,-0.007696339,0.270626439,0.874003213,2.852789749,-0.255364811,3.425005903
1,0.068441824,0.00238222,1.118102967,2.938019681,-0.298196841,1.013738043
1,0.130121306,0.15892182,1.030329142,7.473809967,-0.551726656,-1.027927087
1,0.154881397,-0.002913104,0.997802481,8.06930863,-2.879354497,1.745325912
1,-0.191822892,-0.061162898,1.034419988,7.765777161,-0.696268015,1.725247634
1,-0.044672718,0.046697606,0.937460921,4.232480891,-0.616279305,1.821847295
1,0.033686503,-0.004870988,1.052592011,-0.988218095,0.033993229,-0.067927232
1,-0.001023692,-0.101191892,0.959773005,0.266298067,15.508708,0.437930996
1,0.037334112,-0.118890351,1.05262565,3.210776588,0.419874918,-0.055163235
1,-0.050242756,0.035130982,1.084438065,2.168002808,0.253703167,-0.28676192
1,0.100500288,0.033833882,1.17458395,0.678566962,0.516815062,0.181141155
1,-0.040314365,-0.001891591,1.020536029,0.086545264,0.35732079,0.389219686
1,-0.308696131,-0.05874589,0.880681007,1.398976747,0.05078321,0.103590601
1,-0.201124906,-0.085339937,1.235795954,2.211422005,0.158319192,0.257331036
1,0.038935551,-0.111113315,1.106911207,1.879329046,0.312143545,0.406584728
1,-0.015344494,-0.078103199,1.010880395,2.118439274,0.220596946,0.25563042
1,-0.164952079,-0.037120355,0.934201625,1.72574999,0.616855903,0.407318419
1,0.087178006,-0.026270285,1.048466846,1.415440772,0.280692879,0.224143024
1,-0.192565155,0.098044805,1.027740773,1.419622915,0.243843978,0.024897336
1,0.022345885,0.155802636,0.863604374,2.380551451,0.279395917,0.558746667
1,-0.202977784,0.038285352,0.932823586,2.749686425,0.484594739,0.090749871
1,-0.047126734,0.089815778,0.93234526,2.911519139,0.416037718,0.092487845
1,-0.122286097,0.075344833,0.934180411,0.818933849,0.428574862,0.014069625
1,0.01361724,-0.05966168,0.880314988,1.193386217,0.345621228,0.327778813
1,-0.3568311,-0.009820212,0.975546315,2.118999747,0.590589247,0.012763235
1,-0.08767649,-0.080689031,0.954447951,1.294786905,0.311310512,-0.054520843
1,-0.159049334,-0.160419656,0.966616045,1.252137831,0.267441195,0.162454678
1,-0.02291819,0.099706235,1.039146919,2.246833708,0.073341153,0.296732771
1,0.027730037,-0.049678735,0.931420838,2.077067998,0.546912055,0.313184038
1,-0.127700026,0.03909917,0.87544449,1.314874622,0.50308423,0.126188003
1,0.029979685,-0.020602739,0.863419639,1.128916619,0.711507327,0.428055616
1,0.055278978,-0.22285711,1.005620186,1.547722924,0.382537668,0.306768075
1,0.147264752,-0.001939689,0.935276896,2.349380625,0.454023596,0.318088934
1,0.009953017,-0.036391638,0.898117904,1.279280521,0.420865383,0.434384782
1,-0.107191428,-0.195598294,0.983276697,2.862895056,0.393419419,0.261094005
1,-0.016777606,0.108330261,1.026054559,2.794206367,0.025721215,0.386806621
1,-0.108634585,-0.107985442,1.102556757,2.744509894,0.050912175,0.146712271
1,-0.075946769,0.164161936,1.065652138,1.938451649,-0.084170999,0.877928421
1,0.034095264,-0.05292146,0.969206086,2.061929132,0.165952281,0.353724668
1,-0.038764365,0.007575664,1.029416922,2.211922974,0.515620975,-0.156842547
1,-0.136472262,0.114616889,1.011746,1.818192643,0.655843033,-0.023919172
1,-0.059945888,0.014201959,1.056517115,1.894655597,0.08023241,0.498664983
1,0.001683027,0.082502833,0.954796389,2.047314548,0.158872691,0.455668679
1,-0.084866438,0.239979248,1.136511507,1.995886768,0.364724803,0.405603795
1,-0.192667305,0.034033219,0.835594085,3.13659558,0.471976283,0.36917579
1,-0.237101742,-0.134413257,1.064999688,2.888041161,0.172724516,0.249810872
1,0.120484243,0.106806818,1.191788696,1.773520048,0.717129621,0.446077161
1,-0.000562223,0.023035918,0.990558073,1.783086387,0.638166917,-0.069143689
1,0.124112352,-0.174535225,0.924843689,1.542419094,0.317899399,0.157543045
1,-0.031783582,0.033731492,1.07532827,1.793869255,0.390505921,0.425539666
1,0.174620888,-0.029431631,0.830382125,2.256336252,0.179945855,0.63831869
1,-1.88511E-05,-0.028500384,1.001142039,2.296497482,0.36609364,0.113674149
1,-0.178176872,-0.008295315,0.916080262,1.661891303,0.531249746,0.328351575
1,0.003977511,-0.02992576,0.927757729,1.751724859,0.597309961,0.296103524
1,-0.020642563,-0.203701509,1.156244961,2.285836023,0.344615945,0.391919206
1,-0.076698977,0.053677238,0.949886057,1.840377544,0.315499856,0.417373372
1,-0.042510422,0.129513394,1.141619087,1.64639787,0.589739648,0.168625173
1,-0.058882879,-0.113674911,0.946235323,2.566103902,0.532793333,0.008931369
1,-0.195471606,-0.278449641,0.787784881,3.049836938,0.148248569,0.182204228
1,0.112080654,-0.150023272,0.985898641,2.359048273,0.312657925,0.33633984
1,-0.034935517,-0.055579817,0.864439902,1.124983445,0.333755985,0.42206073
1,0.044996449,-0.175930856,1.108966336,0.646152884,0.541568465,0.20934538
1,-0.198980773,-0.06784076,0.905258262,1.94751689,0.277750859,0.168308199
1,-0.054259511,0.222523787,0.9406864,1.598964853,0.263401886,0.401198715
1,-0.04108452,-0.118331254,0.95317905,2.630209943,0.167955755,0.347455695
1,-0.029257985,-0.087827784,0.875934838,2.560122872,0.478507243,0.222680428
1,-0.013336528,-0.02804725,0.881123294,0.741787385,0.739907921,0.07642079
1,-0.067135769,0.189290394,1.029337634,1.022465865,0.535282408,0.458919122
1,-0.215041849,0.053826331,0.982842758,2.273564645,0.69715876,0.528171538
1,0.057282827,0.02449089,1.052944111,2.353730483,0.580557842,0.862878347
1,-0.083192308,0.028575305,1.003982904,3.096862414,0.389145861,0.0508443
1,0.10284005,0.16718966,1.031585073,4.593232306,-0.226528255,0.200301213
1,-0.007914383,-0.050843322,1.114811685,2.972964284,-0.029925307,0.293739738
1,0.012259049,-0.052845377,0.85984188,-0.631597339,0.785588289,0.198072191
1,0.007814814,0.004741609,0.914719129,-1.224662571,0.707919707,-0.25316881
1,0.056339337,-0.080434272,0.992631027,0.091412542,0.023084069,0.009552837
1,0.147963434,-0.059460569,1.08454473,0.485971105,3.749535709,-1.891273825
1,0.020321317,-0.043401893,0.929501986,1.967767303,-2.255865497,2.93550936
1,0.075480696,0.127891135,1.104539211,3.09576156,1.604855138,1.795574627
1,0.07183753,0.066774163,1.049612326,1.673762824,3.926642023,-0.826128304
1,-0.172065171,0.01012204,1.154934307,1.688624917,0.220695393,0.413986318
1,0.120136515,0.055318309,0.98472111,2.48443102,0.879890233,0.92005734
1,-0.086725499,0.020675588,0.924179208,2.224107445,0.812445463,0.148271962
1,-0.174235508,0.118721087,1.116234559,2.345440917,2.290519735,-0.252568892
1,-0.105399287,0.257301956,1.135871086,2.869598777,3.31181317,-0.338778821
1,-0.025445562,0.091587705,0.962805491,2.149941244,0.369804635,0.376637739
1,-0.052531511,-0.135776119,1.021425584,1.16339867,0.3261782,1.750277241
1,-0.051623652,-0.058805584,1.083143548,1.420961803,2.933294737,-0.037461473
1,-0.176045169,-0.017217003,1.073422334,1.952418236,-0.05171353,0.431203456
1,0.027649166,-0.11212102,1.035584502,1.540990417,1.054527178,0.44801597
1,-0.080767377,-0.014727082,1.156465587,1.342652796,-0.686780319,-0.271056767
1,-0.21551524,-0.026527912,0.990048337,3.007521366,1.1766497,-0.143548007
1,-0.014075474,-0.119306707,1.108269677,1.970626789,0.157442346,-0.399538377
1,0.039148944,-0.031574079,0.904435325,1.144244398,-1.304032984,0.183312376
1,-0.188339656,0.060292588,0.961632933,1.386483045,-1.056487283,0.464928462
1,0.128910301,-0.097871932,0.933448124,1.446801515,-0.657453113,0.542198818
1,0.010092619,-0.104646756,0.969721208,2.117121059,1.391840107,0.006214253
1,-0.037353334,-0.032759566,1.111282506,2.268528238,-0.031567134,0.095558961
1,0.087978826,0.093119423,0.905868843,2.184279326,-0.000977808,0.50484955
1,-0.109904907,0.115333199,0.96874223,1.106224885,0.203535396,0.274889537
1,0.025066573,-0.166130911,1.025473102,1.108792338,0.603696785,0.174160016
1,-0.042053141,-0.069225013,0.949654131,1.154084579,0.728761181,0.377311427
1,0.002568629,0.027967191,0.944575712,1.682493092,0.532402312,0.355928908
1,-0.102238235,-0.103804743,0.896557984,1.922959292,0.296066328,0.132255161
1,-0.00777446,0.057214633,0.902565839,1.896682812,0.449358688,0.238081276
1,-0.109836573,-0.011682049,0.91232603,2.062993192,1.386981204,0.076224292
1,0.034585231,-0.195991351,1.06821778,1.516321627,1.235149681,0.157486384
1,0.140559052,-0.154666707,1.031822418,1.467675334,0.377638595,0.233994292
1,-0.022370302,0.119714138,0.896111965,2.173471555,-0.311034196,0.24641804
1,-0.07908081,-0.126917768,0.888966626,1.614711933,-0.141889151,0.489912013
1,0.006184598,-0.025357421,0.94199166,1.62374769,-0.262811724,0.148478947
1,-0.135376672,0.057719707,0.957550282,1.388577518,-5.523136184,0.203745025
1,-0.009006088,-0.120804743,1.014713081,1.29610071,1.639841714,0.276444276
1,-0.086046496,0.011607004,0.959704222,1.115775204,0.120746782,0.332870568
1,-0.202375586,0.025680772,0.891135899,1.539815901,0.143422577,0.132871821
1,-0.059613672,0.026821501,1.133845063,1.554760646,0.483752416,0.079705001
1,-0.034337118,0.165706254,0.901112418,1.069563237,0.293287788,0.297496125
1,-0.187331986,-0.11695249,1.030851166,0.844251932,0.464586225,0.265370248
1,0.090264974,-0.128435225,1.000291326,1.241778883,0.484777837,0.110534784
1,0.037076496,-0.096336193,0.94507921,1.652583481,0.338854274,0.656577809
1,-0.070390796,0.014219366,0.905607896,1.932093732,0.228373525,0.366174008
1,0.043267824,-0.045804657,1.073255386,2.001086651,0.283228591,0.196432736
1,-0.101515253,0.039467322,1.121646979,1.90043255,0.433318618,0.212651413
1,0.015465638,0.017615794,1.072969189,1.678269476,0.540401753,0.130721697
1,-0.104885076,0.040242912,1.154221036,2.078505531,0.329457567,0.364942039
1,-0.098371615,-0.106490368,1.315753691,2.410103605,0.356856124,0.173523948
1,-0.224144878,-0.121524684,1.132297816,2.632726715,0.211084415,0.126329607
1,-0.119719333,-0.277713748,1.096360635,1.80365162,0.281776639,0.405315675
1,-0.099772754,-0.003428269,0.977708219,1.522782892,0.45316006,0.041122969
1,-0.180689371,-0.011135248,0.957030716,0.908337601,0.339256007,-0.054999239
1,0.004455681,-0.123000842,1.021268278,1.121116469,0.513017493,-0.046835024
1,-0.031431792,-0.091068767,1.062528593,1.663898113,0.705995428,0.2776517
1,-0.093262663,0.037057961,0.907039448,2.966867514,0.241687112,0.183726738
1,0.031653147,-0.013456316,1.014537046,1.938174493,0.198357894,0.390369835
1,-0.099151021,0.048969461,1.071741046,2.040599146,0.415391833,0.417112948
1,0.052118493,-0.06762843,0.948396649,2.096859315,0.597925201,0.462747428
1,-0.057309551,0.044740112,1.122010781,0.460735824,0.771079677,0.234654123
1,0.108032248,-0.02024362,1.056487339,0.702635957,0.596535965,0.17340694
1,0.093932531,-0.112382245,1.034783334,1.893962559,0.844646502,0.209272887
1,-0.081002011,-0.050240349,1.169800815,1.9514973,0.455049856,0.114416415
1,0.08646357,-0.077568488,1.152219148,2.344188812,0.345661259,0.096422345
1,-0.105943904,0.096105659,0.741506226,1.976141589,0.429161674,0.107794424
1,-0.094998492,-0.067034232,1.167726744,1.765344139,0.371765371,0.257101627
1,0.125471303,-0.059513576,1.013375255,1.625575822,0.396134304,-0.239188862
1,-0.117415119,0.057810249,0.867519856,1.666788823,0.457726255,0.232625506
1,0.087098021,0.114602393,0.966243762,1.371778716,0.326693885,-0.137251891
1,-0.043633668,-0.018232947,1.00721115,1.478994463,0.131268306,-0.374939117
1,-0.057542362,-0.060009793,0.976771089,1.498244488,0.331864033,-0.230706103
1,0.160668748,-0.066055303,0.764642092,1.644219119,0.379266086,-0.361968581
1,-0.114947861,-0.245348376,0.944681914,2.004157811,0.449676259,0.058985622
1,-0.291436152,-0.095926665,0.87063437,1.839551229,0.446230163,0.262029186
1,-0.134910918,0.016940374,0.985851825,1.364040359,0.211897061,0.466209387
1,0.032417042,0.042891467,1.013092063,1.399526633,0.311288513,0.204628642
1,-0.096994656,-0.051373786,1.12719984,1.586238641,0.478652967,0.026080492
1,0.091479171,-0.046353484,1.06584266,1.576085415,0.660814972,-0.009216504
1,-0.057504939,0.001798575,0.979069714,2.306992565,-0.018767678,0.022955913
1,0.0320327,0.088511824,0.928700748,2.546267742,0.452874652,0.371818956
1,-0.028874725,0.100885071,1.022226625,2.271418839,0.262658907,0.16896767
1,0.153962594,0.024215686,1.140187691,0.949277104,0.634888918,0.362806331
1,-0.06846285,0.147135233,1.122971559,1.01092495,0.404043848,0.140454928
1,-0.011143978,-0.054550784,1.098861351,1.297757403,0.527097256,0.33244709
1,-0.175099001,0.040753808,0.83277771,1.955951613,0.560684002,0.168620229
1,0.010342398,-0.021144155,0.99770984,1.682996517,0.294817119,0.315012923
1,0.004688503,-0.148605652,1.100616335,1.771392789,0.534689025,0.202032781
1,-0.165952916,-0.033967976,0.810909311,2.104549328,0.371872369,0.46368083
1,-0.132734962,0.020558062,0.911446157,1.814870359,0.213351707,0.324276272
1,0.188152518,-0.030242816,0.891128887,1.662175977,0.284839802,0.094108672
1,-0.036355619,-0.159170646,0.960852963,1.423166896,0.266455221,0.244004995
1,0.175903154,-0.113096035,1.041514597,1.393638258,0.276417759,0.289493305
1,-0.075154796,-0.090380862,1.043978732,1.301118109,0.428216779,0.083121881
1,-0.164494258,0.177888088,1.015973071,1.950778687,0.483064063,0.175284291
1,-0.191410814,-0.15696943,1.063193104,1.505413372,0.411741281,0.429637987
1,0.074308952,-0.144134693,1.112815325,1.629025333,0.33857987,0.257699881
1,-0.188204465,0.018282774,1.008912659,1.841228714,0.549733426,0.094701945
1,-0.025687916,0.077380263,0.924846208,1.54392197,0.443033089,-0.129577717
1,0.0940327,0.041047951,0.987507223,1.479919272,0.118783264,0.129452569
1,-0.088941543,-0.156655178,0.979104063,2.12757198,0.312302495,0.097412221
1,-0.078470393,0.06898905,0.943619993,1.805171058,0.837650933,0.139870038
1,0.097902995,-0.026910357,1.028846301,1.378168285,0.795288119,0.104041291
1,-0.074239828,0.130000699,0.953473493,2.346169824,0.573379609,0.22465332
1,-0.128381414,-0.026785809,1.006566909,1.53786314,0.449419099,0.140134016
1,-0.203843413,0.003141904,1.115733758,1.672741994,0.495025328,0.32665253
1,-0.003621871,-0.025007061,0.885748005,1.826763585,0.503951728,0.222564546
1,0.047891639,-0.166464558,1.304858164,0.983035212,0.601260935,0.256927562
1,0.071743966,-0.03540713,1.02008082,1.327603752,0.653479308,0.229311466
1,-0.093039315,0.029743319,1.142345436,1.910158448,0.357352061,0.17421426
1,-0.09072027,0.074975378,0.964624413,2.148326862,0.702996981,0.176789166
1,-0.017555599,0.042386358,0.916301667,1.632885586,0.635636842,-0.005986361
1,-0.060538741,0.089394633,0.923381092,1.319676501,0.459006428,0.072593988
1,-0.194647746,0.034490336,1.00926095,1.54190522,0.310100313,0.130625768
1,-0.196458199,0.00770136,0.937737426,2.018109123,0.488851247,0.382510219
1,-0.154765104,-0.175685416,1.02719334,1.88921015,0.625120001,0.386933567
1,-0.149325723,0.064000138,0.9193914,1.886794119,0.444949619,0.155326461
1,-0.08594825,-0.015591545,0.89005064,1.229851736,0.478261972,0.385673764
1,-0.038146633,-0.047908179,1.044324547,2.082538764,0.658654329,0.323526655
1,-0.176200121,-0.035197786,0.912058994,1.630276339,0.335913148,0.324818122
1,-0.133251873,0.003994172,1.108599716,1.788222803,0.152235795,0.526918047
1,0.045543078,0.060831064,0.883152849,1.410962423,0.501613906,0.137024135
1,0.067024911,0.005479259,1.026470131,2.576276741,0.281259211,0.353209161
1,-0.073141832,0.050524878,0.827321535,1.897923805,0.370142001,0.408591308
1,0.027202315,0.015215065,0.974171354,1.932565494,0.576634583,0.218637864
1,-0.086697227,-0.185198684,1.012290462,1.202572095,0.661285253,0.248080408
1,-0.059652176,0.103372189,1.036246726,1.501836312,0.715084447,0.316961512
1,-0.132706309,-0.044328515,0.962643196,1.629824346,0.494510275,0.39347244
1,-0.143222565,-0.017506675,1.096296107,2.327917919,0.131131134,0.002467205
1,-0.094803121,-0.05918303,0.765039459,1.917935967,0.048990829,0.208008065
1,-0.095059993,-0.151805724,0.856709129,1.49803197,0.239079739,0.369003704
1,-0.235482413,0.013262841,0.911804305,0.739560805,0.438163274,0.426743587
1,-0.011621517,0.036104455,0.981373447,0.784260988,0.760271665,0.207898036
1,-0.016990691,0.12099071,0.891105598,1.251816537,0.521771973,0.281823606
1,-0.205635639,0.241610465,1.029276784,2.215136826,0.713576277,0.260846921
1,-0.067338849,0.005475639,1.072112486,2.375419286,0.786459476,0.597279666
1,-0.158736541,0.085545249,1.150370072,2.390385984,0.56710392,0.500969935
1,-0.04741181,-0.087473165,0.892323615,2.960447525,1.048688809,1.169258851
1,-0.157685011,0.14076997,0.863317566,1.94921751,0.849008509,0.55520237
1,-0.106763171,-0.005887026,1.008717655,1.59215989,0.53610857,0.104408685
1,-0.132579853,0.008110929,1.091025052,1.370870154,0.227339621,0.173566625
1,0.118633465,-0.077645306,0.960364725,0.739464812,0.777483761,0.139048747
1,0.042314228,0.144701595,1.113788336,1.455100561,0.99511836,0.076512341
1,-0.176402621,-0.078311436,0.886726461,0.722102985,0.582515926,0.037025402
1,-0.004321003,0.086933123,0.990313862,1.104510616,0.850855871,0.13282282
1,0.006041427,0.064332426,0.977384499,2.697439497,0.484110511,-0.024152675
1,-0.141861556,0.124281431,0.945003966,1.774247952,1.420208939,-0.793419569
1,0.034419446,-0.202924024,1.104668919,1.564607917,2.570367238,-0.456248284
1,-0.173093623,-0.010455668,0.882663626,0.843688634,0.456569373,-1.720032433
1,-0.033112801,0.070323724,1.046788388,1.396172376,-2.961258596,-1.405762483
1,0.009250169,0.149042144,1.009144644,-0.200780556,0.588762463,-0.533286013
1,-0.094931711,-0.086784637,1.090968257,-2.795640684,1.088146914,-1.075566914
1,-0.031670095,0.143992457,1.016536031,-0.73927765,0.51037957,-0.65436825
1,-0.038860543,0.175054619,0.886603203,-1.793380519,26.28840612,-13.67485219
1,0.017079686,0.104422069,0.952897831,3.002302219,7.831238458,-0.137719054
1,0.036137009,-0.082035815,1.003897583,-5.06944258,-7.214451307,-3.033916437
1,-0.051268777,0.102348056,0.801338494,1.233386179,-2.065854587,-3.029957318
1,-0.002580294,-0.021030998,0.986237929,-2.661194745,-4.782009291,-5.457876938
1,0.082924211,0.074386731,0.994551484,5.381905051,6.851173266,11.23722836
1,-0.022036573,0.177151456,0.965302756,3.230865321,3.951938046,7.936847834
1,-0.096154494,-0.092421989,1.038519934,0.409567602,5.815748067,-5.257790317
1,-0.035458174,-0.015377166,1.09005,-0.803553991,6.687650764,-7.753999941
1,-0.252908533,0.164121131,0.96345495,-0.070971668,3.370987906,-6.199806203
1,0.101568101,0.087462689,0.851894983,-0.060947753,5.726988547,-1.450340588
1,0.127338943,-0.096913997,0.885673589,0.867627459,4.898496255,-3.976255626
1,0.049692854,0.0428162,0.765606883,5.734111713,12.35299376,-4.444946578
1,0.103253366,0.214537714,0.947221061,23.82929301,7.04097675,-12.41153842
1,0.083700907,-0.006764966,0.760229811,6.231128945,-6.348964353,-2.718658254
1,0.161736572,-0.148284857,1.213471464,-0.652664336,-10.01067374,-14.28733245
1,0.04526247,0.101743485,1.046021636,0.178471675,-6.169821612,-20.72182852
1,-0.215869744,0.087617838,1.001098732,-0.083183836,-5.633275806,-16.90703655
1,0.020505581,0.071412126,1.04054911,3.519249115,-6.329257275,-19.48986421
1,-0.186063021,0.000112183,1.109828548,0.510852345,0.965177667,-17.94845688
1,0.052254325,0.156327675,0.851913512,0.821768817,2.355348479,-12.54030903
1,-0.020449128,-0.012334325,0.928718983,1.362306176,3.821350316,-1.106900144
1,-0.044815411,0.009982138,1.015900556,1.638018712,3.503639252,1.35282106
1,-0.021978228,-0.020164632,1.059604629,2.045376125,-0.182284644,7.579263939
1,0.054250566,-0.177171949,0.932410673,2.128158036,-2.410046816,7.109110035
1,0.074996193,-0.14729994,1.071798018,2.409103397,0.325139784,11.06689273
1,0.11502258,0.040940291,1.105983079,3.37581651,1.188528727,15.44259122
1,0.207886031,0.103555956,1.075807684,10.5050373,0.766823774,13.08742379
1,-0.123231993,-0.172412582,1.122170501,9.625363352,-1.943351368,11.49217215
1,0.114940786,0.138221229,0.92389106,10.9318523,-0.862787836,7.905900157
1,0.077034749,-0.061601638,1.157981322,12.37777549,0.400351004,8.399882724
1,0.021103359,0.106364864,0.866846164,20.47339726,2.543770271,16.60853428
1,0.020461525,-0.055138363,0.911604704,19.29889284,6.812386499,16.88081529
1,0.022143763,-0.282421941,1.124349937,16.18193059,7.57615308,8.146008063
1,-0.005167383,-0.138581414,1.01595869,-5.60481926,-4.267687464,-1.649552091
1,0.056010748,-0.242599668,0.78058072,-8.23214282,-20.91250058,-27.17112619
1,0.178524577,0.070475674,1.033962099,-42.43157671,-4.237986913,-25.15728333
1,0.035336151,-0.088572347,1.025364114,1.350931098,10.28285164,1.892684807
1,0.080095408,0.066070076,1.026279853,-4.014895205,2.561220676,-4.576443722
1,0.041478596,-0.127923947,1.114686622,0.169882528,0.675691291,-5.085369254
1,-0.1064763,-0.064503223,0.938558615,1.742250485,-0.607824664,-16.79002743
1,-0.000844329,0.053082793,0.973605102,1.816792328,0.530180848,-1.522987629
1,0.01373565,-0.015170558,1.145821898,1.510892507,0.16775974,-6.640906377
1,0.013311728,0.033868556,1.103002374,2.22578659,0.46735977,-2.292308964
1,-0.076866826,0.095338099,0.811388368,1.679179188,0.440341835,-2.147635089
1,-0.009352714,0.254354039,0.838005362,1.57027501,0.539746531,-2.022890712
1,0.078180459,-0.048585968,1.000672354,1.604241981,0.331280818,-1.318746465
1,-0.064950123,-0.077340721,0.910294268,0.806190882,0.574592742,-1.385885733
1,-0.254436104,-0.174779565,1.043554917,1.894154434,0.602592777,-1.408830745
1,-0.006062764,0.251827754,0.929713128,1.846799123,0.727376379,-0.933741003
1,-0.174741297,-0.159738988,0.88012068,1.314159115,0.099529388,-1.127377053
1,0.042441557,0.11051563,0.928833334,1.441114252,0.488936473,-0.842351504
1,-0.033613242,0.015816838,0.851154637,1.867259932,0.521053112,-1.089689065
1,-0.006537525,0.125979054,0.815025698,1.863178644,0.455196609,-0.851395832
1,0.057841678,0.02955602,0.859070808,1.986379081,0.515958347,-0.678353286
1,-0.062831111,0.100522411,0.770464951,1.810317542,0.613484138,-0.898841251
1,0.146440052,-0.073764223,0.861612828,1.370014206,0.39872718,-0.644011817
1,-0.118078848,-0.1359118,0.978781903,1.460871022,0.590851541,-0.721559239
1,-0.162366033,0.074062448,0.845472812,1.85922043,0.302520011,-0.775448541
1,-0.114253485,0.191524826,1.062520198,1.853527347,0.16452185,-0.413788885
1,-0.074171368,-0.022907026,0.963497292,1.763519924,0.535515189,-0.360135313
1,0.0819484,0.09907023,1.008197314,2.009970372,0.378692532,-0.484082823
1,-0.089726708,-0.272738566,1.172085179,1.728774313,0.276510694,-0.513240966
1,-0.011898924,-0.160532585,0.889855034,1.911104225,0.654258183,-0.339915373
1,-0.043391206,-0.007406046,0.900464504,1.473900987,0.309954492,-0.489907123
1,-0.063845141,0.04932636,0.954910555,1.664800359,0.559319646,-0.574123168
1,-0.126575992,-0.005165871,1.018094828,1.705160551,0.200388435,-0.413156112
1,-0.083927961,0.045615865,1.012218399,1.672158808,0.513501469,-0.361614983
1,-0.063781975,0.016988664,0.902313958,2.019287446,0.565147193,-0.298507885
1,0.013426469,0.147228215,0.963252913,1.544933682,0.460761915,-0.368259124
1,-0.033329587,-0.002393011,0.924842072,1.332069503,0.397690823,-0.502550986
1,0.137166947,-0.058719518,1.103137928,1.57559439,0.611059509,-0.485653933
1,0.091905642,-0.060354345,1.055090758,1.696638012,0.628253943,-0.169630836
1,0.017500464,-0.085400959,1.106064342,1.889258035,0.497581953,-0.107229275
1,-0.217454095,0.1305251,1.201739197,1.682845674,0.471574374,-0.35681876
1,-0.103200281,0.090543226,0.994944142,1.493460564,0.548263213,-0.218107543
1,0.010821324,0.01699236,0.930452182,1.838238505,0.459444099,-0.27066595
1,-0.132796611,-0.057134863,1.093348275,1.671078713,0.670883563,-0.203049872
1,0.034880102,-0.020120544,1.203717141,1.503054433,0.551682133,-0.270547964
1,-0.110416585,0.018120527,0.992776002,1.902549935,0.235581849,-0.300581773
1,-0.101297691,-0.229525031,1.089193537,1.950409005,0.620955729,-0.384853737
1,-0.112078766,-0.093081396,0.972768143,1.685497301,0.518929357,-0.157547687
1,0.051886014,-0.164022911,1.056454129,1.921693394,0.771554304,-0.334330228
1,0.025076995,-0.213475564,1.08522501,1.775364413,0.600829953,-0.142003356
1,-0.11272421,-0.015502796,1.095175931,1.876156041,0.577551357,0.05899253
1,0.002614735,-0.019920702,0.953931995,1.76197932,0.396802055,-0.093660693
1,0.021514559,0.003901441,1.008028193,2.060240516,0.619065435,-0.242820213
1,-0.049053915,0.003506302,1.073946207,1.947834449,0.415323808,-0.184202855
1,-0.080646115,-0.069553309,1.031039291,2.001257814,0.384326354,-0.398727262
1,0.1411853,-0.026149177,1.064612222,1.519366376,0.522835686,-0.334078045
1,-0.083941339,-0.041302006,0.914477328,1.794175251,0.448900215,-0.137501561
1,0.010142684,0.1730849,0.957116447,1.642778808,0.625180834,-0.028523947
1,-0.192487051,0.144127349,0.88801559,1.837209325,0.542934733,0.0399686
1,0.023743185,0.110876676,0.989664897,1.455075597,0.594656566,0.05317426
1,-0.093179234,-0.045359676,1.270956501,1.299602004,0.611399672,-0.053308181
1,-0.120269318,-0.246470035,0.911521128,1.775573791,0.480923343,0.095311887
1,0.027621513,-0.010554289,0.912131929,1.741097472,0.467091362,-0.225571034
1,0.030098997,0.125669254,0.975865534,1.710989902,0.560000048,-0.426938478
1,-0.010104323,0.156354487,1.100593118,1.669855153,0.2810259,-0.223043981
1,0.045711646,-0.024161675,1.049078325,1.859871256,0.64043622,0.020621971
1,-0.173910562,0.144363436,1.133029609,1.437291013,0.6973722,0.084208489
1,-0.002664921,-0.011107856,1.020136674,1.793086684,0.631132283,0.121930388
1,0.009566521,0.012193298,0.848452462,1.761217966,0.510246152,-0.355662764
1,-0.078319457,-0.138646383,1.061391105,1.796235021,0.312690263,0.113271941
1,-0.055065226,-0.02264572,0.956267565,1.572476114,0.308271653,-0.417068044
1,-0.00116916,0.044975727,0.951206767,1.661731573,0.515020418,-0.159761983
1,-0.08200505,-0.132188172,1.177071966,1.698831029,0.611974814,-0.104893467
1,0.180773469,0.112367228,0.89599928,1.681793003,0.744759938,0.077910435
1,-0.074872243,-0.035013111,0.829341193,1.554584154,0.373095763,-0.027700951
1,-0.046770329,-0.103863036,1.219003353,1.537671906,0.477441269,0.065146818
1,-0.046436535,-0.068498964,0.944946082,1.880035112,0.533854159,-0.09526257
1,0.079423129,0.039401009,0.994924105,1.90876031,0.611741748,0.014408118
1,-0.127438968,-0.130961706,1.046185315,1.643941212,0.085005419,0.162990916
1,0.038948096,-0.071560908,0.954950078,1.758619912,0.646636148,0.164707678
1,-0.172852263,-0.075485825,0.990898904,1.813703144,0.418124514,0.256939751
1,-0.140510875,0.02087709,0.893807713,1.615688808,0.498473356,-0.073392861
1,0.006308427,0.013726395,1.005844231,1.564253087,0.454915082,-0.023552069
1,-0.086217557,0.241881746,1.213603192,1.621695532,0.334041696,-0.016274138
1,0.086105071,0.151180223,0.955791009,1.760757748,0.233085235,-0.232641333
1,-0.057742683,-0.017258475,1.044089735,1.961940306,0.463415427,0.042141177
1,-0.177346376,0.1199556,0.962355453,1.738416055,0.548588747,-0.144363695
1,-0.012924517,-0.118807404,1.128359671,1.505689238,0.505347752,0.060541123
1,-0.154250383,-0.002737314,0.890323668,1.495816054,0.44709266,0.163163756
1,0.071235423,-0.060450309,1.144450554,1.165118239,0.134242317,-3.924254737
1,-0.017593661,0.010275124,0.98158842,1.965942421,0.224549693,-0.03586104
1,-0.053692436,0.057958818,0.968287799,1.357169571,0.418409916,-0.029154337
1,0.061916511,-0.107081439,0.948630371,1.833960606,0.530579165,-0.110512295
1,0.053920787,-0.051568801,1.079836543,1.482330399,0.478039746,0.305598164
1,0.109820038,-0.025148981,0.89837197,1.705514176,0.076524077,-0.067497119
1,-0.116509038,-0.125784384,0.82010722,1.587784138,0.282978593,0.121278652
1,0.108731371,-0.009795116,1.058989366,1.48136771,0.415029975,0.010505333
1,-0.068476891,0.074666787,1.028731707,2.12845236,0.363818817,0.004929397
1,-0.016079419,0.007298862,1.19644344,1.613632495,0.560353785,0.022373752
1,-0.068966163,-0.059813225,1.111075711,1.908004515,0.607616441,0.023102188
1,-0.057812588,0.129379374,0.95950949,1.432010047,0.531172113,0.140510683
1,0.028556076,-0.024810628,1.027050165,1.425474534,0.304942379,-0.020124796
1,0.05564839,0.064441281,0.971862501,1.877805567,0.360758983,0.001719093
1,0.221408057,0.034878587,0.984690847,1.789570653,0.47034358,0.114897431
1,-0.158367571,-0.046033257,1.017044996,1.652753689,0.38461936,0.008017262
1,-0.041728166,0.026165288,0.90716077,1.685760812,0.470928631,-0.134304645
1,-0.013115521,0.061252764,0.969459662,1.613229661,0.343768862,-0.000438941
1,-0.014359028,-0.004575712,1.069020638,1.650354901,0.457275146,0.111193672
1,0.045211758,0.149028412,0.888071288,1.406889074,0.428076059,0.06575393
1,-0.062438668,0.247248442,1.042183187,1.641075116,0.274705906,-0.171236265
1,0.07523559,-0.017891182,1.014598046,1.975967679,0.519668098,0.096339676
1,0.103091876,0.110766856,0.856962698,2.066116706,0.316795959,-0.168033636
1,0.059007077,0.08379973,1.035615854,1.764185069,0.827545463,0.011292896
1,-0.027967438,0.065591865,1.007562051,1.636111472,0.557099199,0.202937508
1,0.071358599,0.138999923,1.032487509,1.749406641,0.702961,0.332012273
1,-0.19080583,-0.12009566,0.761562852,1.522487208,0.20855344,0.091815961
1,0.015996666,0.102999414,1.124389719,1.851366731,0.00508427,-0.128807612
1,-0.075253114,-0.045281189,1.032475712,1.588425719,0.432218682,0.091297981
1,0.112513822,-0.156424672,1.247412834,1.54425957,0.524642893,0.000831037
1,-0.006493468,-0.123990666,1.108198801,1.900091691,0.359680095,0.186281046
1,0.137755831,0.114095036,0.855220417,1.499909382,0.594746672,0.145329508
1,-0.131462184,-0.143784951,1.028435835,1.272933915,0.364471822,-0.184385781
1,0.016772395,-0.118182693,1.043947915,1.761052519,0.171667041,-0.01947783
1,0.028853963,-0.021318197,0.863801866,1.53561167,0.377250682,0.008676624
1,-0.052361218,0.079294297,1.02625937,1.566299246,0.234228291,0.101196849
1,-0.044591526,-0.039485396,0.899731576,1.825994697,0.32497261,-0.007753321
1,-0.037310911,-0.074922339,1.01609005,1.841864943,0.610060761,0.072287668
1,-0.114906089,-0.149361433,1.092566966,1.643440666,0.44015249,0.097469846
1,-0.034670562,0.165539662,1.013253178,1.874812,0.252934706,0.186571636
1,0.09952374,-0.016542799,0.968833378,1.421478286,0.353929764,0.091293164
1,0.19069255,-0.068180759,0.866420519,1.661448112,0.418716956,0.326182244
1,-0.006827564,-0.001661162,1.137052333,1.840249198,0.074293484,0.065370924
1,-0.069742356,-0.171267215,1.050511817,1.520569848,0.424474703,0.231806527
1,-0.102359146,0.050514726,0.917748131,1.734461387,0.573559781,0.094057992
1,0.024812863,0.070492691,0.912594966,1.582951863,0.388014954,0.087835414
1,-0.007704202,-0.10594061,1.026814784,1.610653916,0.459325579,0.001610935
1,0.203312235,0.030632896,0.966281116,1.692933816,0.557057121,0.1975852
1,-0.200953447,-0.004287213,0.799910495,1.728694607,0.369900771,-0.070978908
1,-0.095938892,0.086831685,1.103371362,1.741283599,0.278598601,0.073365154
1,0.065916691,0.041577807,1.232924389,1.796022763,0.813002879,0.044042907
1,-0.010528448,-0.005941415,0.856511348,1.13604887,0.367423817,0.197847426
1,0.056868698,-0.098676051,0.973997693,1.658698101,0.431983024,0.236079025
1,0.027846386,-0.060068162,0.944311352,1.753484741,0.248696811,0.26592883
1,-0.090155824,-0.086202225,0.927333161,1.62689581,0.684846446,-0.056878981
1,0.167966835,0.102620465,0.84260689,1.684735498,0.436324965,-0.167750988
1,-0.03622654,0.161129078,0.89332206,1.65720466,0.580856725,0.295569934
1,-0.05975994,-0.140300589,1.01253626,1.760827484,0.414077253,-0.024497169
1,0.058438267,0.111584668,0.828498712,1.739945315,0.509961171,0.118426111
1,0.103002961,-0.011700176,1.257275343,1.908515437,0.750799659,0.332508348
1,-0.055742112,-0.120808159,0.937022373,1.610089853,0.513568917,0.074225703
1,-0.168191136,-0.189934133,0.961772449,1.89545125,0.589733149,0.333778387
1,0.060781082,0.038373893,1.043483714,1.709167702,0.633503622,0.174067556
1,-0.029661147,0.121337496,1.189057712,1.660812882,0.135764608,-0.00402983
1,-0.150480971,-0.135066558,1.179102538,1.861175913,0.135564242,-0.009130145
1,-0.072287541,-0.113759846,1.096339603,1.882443276,0.516942677,0.150294464
1,0.053307323,-0.053232592,1.156186954,1.945070183,0.462549289,0.141845247
1,0.023768916,0.114138408,1.000494411,1.775329722,0.077386038,0.133711754
1,-0.125878198,0.023978227,0.891436332,1.665115523,0.595318267,-0.003898007
1,0.197560666,-0.043067431,0.906127322,1.778172158,0.296380315,0.058666065
1,0.159997099,0.055933969,0.984276199,1.589121648,0.533673629,0.049801102
1,0.12177424,0.059561787,0.94474855,1.659932735,0.610337595,0.144272597
1,-0.10531795,-0.051460324,1.030197178,1.696980422,0.460733137,0.152663174
1,-0.047556686,-0.09662887,1.024382778,1.895731563,0.264578448,0.109330821
1,0.001332185,-0.058726046,0.918899748,1.619510223,0.636019472,0.159520094
1,-0.097090119,-0.100715285,1.105242011,1.409678842,0.475368647,0.038381474
1,-0.097656328,-0.106865785,0.975503234,1.873793023,0.5413974,0.170006967
1,-0.05993368,-0.123760671,1.12227289,1.396760281,0.335118681,0.152349584
1,0.102788501,-0.206597793,1.072778392,1.707475925,0.506423708,0.003289619
1,0.015175063,0.028479167,0.894205247,1.38987588,0.274500689,0.031314518
1,-0.059980534,-0.066076738,0.83073,2.120858793,0.612320056,0.218233377
1,-0.066935825,-0.118755128,0.956703233,1.656161037,0.600018806,0.162982092
1,0.068253813,0.190535371,1.059293223,2.08223568,0.338750331,0.067021318
1,0.130677084,0.266578419,0.986049231,1.937368693,0.619099212,0.199004012
1,-0.016477115,0.044204352,1.143844094,1.463787151,0.385457302,0.234686437
1,-0.04237868,-0.004516153,0.930829529,1.471999291,0.630507434,0.186343048
1,0.036742916,-0.077966478,0.844206205,4.19420396,-1.282748856,0.312439405
1,-0.050530053,0.303435561,1.01576039,-0.389022551,2.124413247,1.12890725
1,-0.023365163,0.204563898,0.899603609,-2.704294562,1.840029413,21.69345145
1,0.238901204,0.058966171,1.104514867,-0.734193803,3.053139199,17.35904818
1,-0.054061365,-0.057558663,0.917048417,-9.393418581,1.849029445,18.66947519
1,-0.305516939,0.03789902,0.973445446,2.389327838,8.176332686,26.30735418
1,-0.071597568,-0.000591499,0.894242993,4.263394266,2.494375871,39.81628944
1,0.135638165,0.092613928,0.834398288,11.87394229,-5.489780263,22.55065173
1,-0.112832404,0.110847974,1.062497059,-5.099848453,-0.886732003,20.21242264
1,0.176200852,-0.096157872,1.026729722,-4.19828872,2.45511195,27.60922727
1,0.050512072,-0.122095284,0.903878645,-5.55957217,-4.221245461,19.74084707
1,0.007946704,-0.15769906,1.07119915,7.025931224,-43.89349073,21.58595387
1,-0.078309119,-0.135576477,1.119687447,-1.944631723,-33.61770898,19.33186222
1,-0.193235986,0.084524394,1.08579184,0.730822934,-17.22170803,11.57167936
1,-0.026730149,0.176436207,0.866981138,-9.313201302,-26.89276369,9.338113587
1,-0.064630075,-0.055178808,0.983209443,-6.693494433,-24.8145159,6.41566361
1,-0.173141199,-0.027401084,0.94501762,-2.913309687,-22.33928472,7.405263606
1,-0.294221622,-0.142311514,0.775574696,4.478776565,-13.25287891,4.422063114
1,-0.222671688,0.226372552,0.913270592,0.635223699,-12.10709944,-0.574328366
1,-0.105463476,0.068686937,0.881180782,-0.759009818,-1.4932671,3.854927905
1,-0.522211122,0.105246603,1.041895112,-0.912371362,6.350152692,-4.80546917
1,-0.300514658,0.257777574,1.110384507,-2.888598551,13.1552185,-1.787635621
1,0.004968296,-0.006400587,0.934305022,-1.459597834,10.03875251,-4.410772691
1,-0.117322638,-0.172386606,0.86557644,-8.066015734,6.400605806,-7.405616898
1,-0.234086153,0.210527606,0.827525025,-2.738848637,10.8265506,-11.0116192
1,-0.094355282,-0.064610898,0.735977241,0.434512311,7.036689342,-11.19577679
1,-0.260094038,0.056110216,0.973202499,-7.60055404,6.088827139,-12.61997916
1,-0.273547462,0.070746785,0.815828958,1.92309111,11.02538305,-7.416639188
1,-0.102577157,0.13906681,0.889052517,-3.617386573,6.049041241,3.025599939
1,-0.085229741,0.13022587,1.034159922,-5.079555539,4.473904034,-0.499579937
1,-0.256541311,0.06406677,1.048017477,-12.84001379,2.25181063,2.075727689
1,-0.038507259,0.174566162,0.905038766,2.85728272,7.650505878,1.925562788
1,-0.108948647,0.19992214,0.979462951,4.36082859,2.378589108,-0.063664571
1,-0.091026976,-0.021518916,0.968441767,5.511773573,10.52856675,-7.041431875
1,0.011944886,0.032968402,0.905516415,7.451584882,6.80488034,13.97579418
1,-0.068015052,0.007782198,0.845872487,0.977454416,5.928624082,-3.339878335
1,-0.082001025,0.140786206,0.956216902,6.942035149,-0.606654572,-8.273191108
1,-0.097663467,0.104073166,0.893601032,6.98599461,2.89947641,-16.23118378
1,-0.191684889,-0.193225415,1.070256542,5.89014795,1.605571188,0.916620672
1,-0.207797673,0.009273003,0.828120474,3.5812355,4.206917239,-14.98189618
1,-0.266587602,0.303183958,0.858573821,4.708448162,7.537598284,-7.167282989
1,0.070972671,0.108171532,0.95827502,6.926032456,13.36142281,-9.716660536
1,-0.130341716,0.072805173,0.957635364,7.964530664,7.922789764,-1.07234752
1,-0.069185807,0.163054077,1.120025739,-3.134390899,8.482059703,-5.105371032
1,-0.18746077,0.15453905,1.053614984,4.900666889,7.943799329,-1.324515308
1,0.124904737,0.109041905,0.931233312,6.336030259,9.56919154,-2.562143611
1,-0.216348679,0.11342511,0.969617237,8.101172575,7.863914621,-2.337071154
1,-0.049612987,0.345706061,1.190995384,4.264811821,7.694119108,-6.155047023
1,-0.054592015,0.1473424,0.901738556,8.235610755,2.248759743,-3.937465126
1,-0.147988168,-0.039437681,0.923407614,5.496860422,6.144717419,-6.535465833
1,0.083102621,0.10440259,1.102560598,2.695903599,13.70375834,-4.419870748
1,0.132546664,-0.061220203,1.088495955,5.60301703,22.90291346,-5.237394854
1,0.147925121,0.069625413,1.001068339,-7.670882023,-6.274253612,-2.882698069
1,0.011918245,0.185104663,1.099524815,-7.641910985,-13.37737245,-5.92191327
1,-0.011493761,0.311268549,0.995888653,1.303479401,-3.525947305,-0.22978548
1,0.180894801,-0.038742458,0.964143293,5.842643461,10.18140055,7.13457785
1,-0.2031769,0.064213629,0.989090669,6.528240048,1.666631501,-0.684375831
1,0.06698283,-0.069053054,1.149198715,3.09280907,0.989952797,5.056795182
1,0.170335845,-0.004774318,0.965487833,1.219645818,-3.783217953,1.659526859
1,0.019773978,0.136384958,0.990335815,0.885921103,-1.019780851,4.999035296
1,0.065114727,0.377036273,0.842609243,1.897001011,2.440199697,2.206981647
1,-0.054311175,0.227114119,0.953948426,-0.207173274,0.313728574,2.625988142
1,0.055969382,0.081708366,0.987689966,-4.137905707,-2.139110761,1.599404411
1,0.150528993,0.128738546,0.943657623,-3.803110827,-2.537412117,-2.849431726
1,-0.011927946,0.12975899,0.805060489,-4.554179438,-1.735399875,-8.163615246
1,0.005526688,0.007197255,1.112944018,3.344017037,3.71168189,-5.471071793
1,0.118348464,0.00903185,1.135872104,1.511711417,-7.473742675,-7.43632614
1,-0.132341658,-0.124648618,1.144456604,3.116847674,-10.27143766,-4.745184815
1,0.018883901,0.129098087,1.128973014,9.571180995,1.191609346,-6.709259672
1,0.001724625,0.080589006,1.052929066,11.80219675,-0.583947861,-4.07652019
1,-0.052020228,-0.076107073,0.946196982,7.664255073,0.423942373,-4.670003905
1,0.052258212,0.029140853,1.019723986,6.661287426,-2.046907514,-3.83383344
1,-0.111997944,-0.007578588,0.891415498,6.263371201,-9.262604971,-2.056765927
1,-0.171355353,0.117190105,0.800755414,-4.779360504,-1.441933268,4.795917516
1,-0.065786384,-0.009347318,1.098047544,9.16345354,13.52915039,12.9738854
1,-0.137678638,0.225100425,0.985239371,5.714760632,4.233567413,17.95909813
1,-0.06457261,0.023633901,1.058042663,4.100087569,3.168354127,17.28941489
1,-0.03789184,-0.002301049,1.025187908,0.126788735,3.43458206,18.37152948
1,-0.121254538,-0.117993642,0.919595432,7.585369174,2.27956018,17.6328561
1,0.136760324,0.121614243,0.954128877,3.320472384,5.884984183,15.81790361
1,-0.010388976,0.00525719,0.821474945,9.423082173,7.855689418,10.56697001
1,-0.03175248,0.000882722,0.948210213,-1.93636235,2.203691227,16.05852701
1,-0.002262265,0.029542391,0.909987701,-6.391671357,1.147813286,19.53452156
1,-0.036161708,0.008104116,1.04780937,-2.214350041,16.7882164,10.9368898
1,0.04474986,0.098077916,0.951371448,1.271824607,-0.820031937,9.238573446
1,0.10904233,0.050878446,0.903659058,-1.116353595,-4.322433586,3.566118284
1,-0.013515984,0.093906067,1.057556537,-2.03531503,-8.377545564,-2.676815605
1,0.030890133,-0.07195684,0.983462427,-2.00568543,-7.640544684,0.16732461
1,-0.072896067,-0.059957422,1.052405511,-2.31058146,-4.044813436,0.625231102
1,-0.240251817,0.008920387,1.103571134,0.547145674,-1.576336083,5.611533091
1,-0.141104303,0.039742531,0.861937625,-0.394564113,-2.93029054,6.838972099
1,-0.027897462,0.014809812,0.869524324,4.951014862,-3.740885501,8.101076455
1,-0.163500132,0.074103945,0.989196825,2.54742484,-2.590067386,4.965637058
1,-0.190693463,-0.086003853,0.985385527,2.438610266,-1.855973752,-2.481017734
1,0.190882273,0.027007054,0.796820275,2.809383744,0.781303643,7.710196596
1,-0.20008503,0.079792773,1.035028084,-0.788254966,-3.845831489,1.183141938
1,-0.230968772,-0.017227865,0.917551312,2.757448409,-8.498319721,-1.861441987
1,-0.076441023,0.094758278,0.821930982,3.912133241,1.648797148,2.759608159
1,-0.17191534,-0.085814326,0.936214922,2.498661115,-2.606013505,-3.910798637
1,-0.166217258,-0.068692563,0.935257444,5.766977814,-3.547496357,0.933149791
1,-0.096899201,0.034035849,0.892748823,3.029746499,-8.666469016,-0.798393607
1,-0.117107266,0.203686016,1.073567272,0.960723199,-7.239319627,2.728377178
1,-0.125535387,-0.118641267,0.865489814,-1.270504604,-10.4158029,2.519837348
1,0.038187612,0.102209959,0.853734279,3.853605524,-11.68687247,1.46516944
1,-0.279751152,0.053009703,1.043723158,0.878825227,-7.223510401,0.961428464
1,-0.142385188,0.14629111,0.943141457,3.265138465,-6.050486876,-12.03746963
1,-0.066595114,-0.036046327,0.846655849,2.875662707,-6.127849582,7.371983667
1,-0.097816242,0.106428241,0.949814474,2.414027653,-4.673075385,-4.145084509
1,-0.130023807,0.22876019,0.993791356,3.260455972,-3.087653424,-0.752959313
1,-0.211256062,0.009048735,0.8748946,2.022523399,-1.15545648,2.565515697
1,-0.10992828,0.191836037,0.916090073,3.198121243,-2.893720409,4.026267959
1,-0.227944947,0.0626826,0.989967813,6.233110273,-5.277756585,0.427652479
1,-0.13237261,-0.070757265,0.885308461,2.91229657,2.177693102,3.949124546
1,-0.237536365,-0.102253907,1.032674464,4.672126909,2.384417103,2.773702099
1,-0.441772149,0.053792169,1.117062738,3.774251546,-0.278981708,2.643232746
1,-0.099792678,0.084009061,0.848061144,4.170832936,-0.211339672,1.673107825
1,-0.146937605,0.135342935,1.039708988,2.091990589,1.168710433,0.454051204
1,-0.350952455,0.287628834,1.15103893,3.072787912,0.45127347,-0.469074041
1,-0.1565039,0.221495068,0.959427249,1.284551397,2.675072715,-0.352719302
1,-0.152767553,0.159013716,1.085928639,1.632521156,0.988782845,-0.823993517
1,-0.215435659,0.105663624,1.044371231,2.978811465,0.526964542,-0.88447141
1,-0.039709745,-0.213256779,1.028996164,3.994220988,0.367768323,-0.035112582
1,0.004149561,-0.156388495,0.929778414,4.592226143,-0.156230239,0.256676471
1,-0.148327379,-0.069069442,1.11513961,3.346346398,0.252221307,0.524312876
1,-0.139262738,-0.125217501,0.902086221,2.652096205,-1.306628152,0.049781111
1,-0.003007693,-0.02653209,0.917476929,-0.502736653,1.27918811,-0.08811154
1,-0.217800395,0.110427721,1.003755034,-0.796627246,-0.226737616,0.06376026
1,-0.135902039,0.055724155,1.018452521,1.353194769,0.962022224,1.506696711
1,-0.327636429,0.044140915,0.870585719,0.988163322,-0.291826377,1.914913536
1,-0.342033182,-0.09172033,0.986975874,2.414204338,-0.014829409,0.99366785
1,-0.106959491,0.163959739,0.930641226,2.162957741,0.895235331,-0.377116604
1,-0.141871373,-0.086764097,0.940966561,1.924198254,-0.647714605,-0.974842197
1,0.033705107,-0.068086155,0.768096032,2.811167528,0.630775045,-0.921720598
1,-0.153808274,-0.010666275,0.952184391,2.056854397,0.011133902,0.268801574
1,-0.178944812,-0.057418242,0.949147689,1.83395575,1.022638798,-0.71160224
1,-0.24668464,0.009962695,0.89823881,1.673914554,0.476203504,-0.206984057
1,-0.180187814,0.110039396,1.121252772,1.692743218,0.667786398,-0.465325686
1,-0.137301308,0.038160615,0.941962381,2.639609407,0.565501169,-0.397148557
1,0.091205643,-0.074975379,1.007528197,3.045985316,1.345642489,0.140280498
1,-0.083704816,0.03114753,1.051861605,0.304512791,1.184571963,1.597096601
1,-0.109397997,0.065401169,1.010874596,0.149227084,0.789473687,2.094244417
1,-0.170561049,0.251926202,0.932759784,-0.927214611,0.231222068,0.303981195
1,-0.095200088,0.116661617,0.86535875,0.90544448,-0.081415494,-0.213868635
1,-0.220082973,0.181059735,1.196584196,2.142303084,0.916283095,0.055213445
1,-0.176362128,0.020396859,1.010709064,-0.202283104,-0.495281247,-1.310405244
1,-0.211487109,-0.077716653,0.982208188,-1.681697019,2.780712235,-1.857271697
1,-0.122685684,0.0725057,1.060543624,-0.392303569,0.94796018,0.342163105
1,-0.12931096,0.120229383,1.311302874,0.252799835,-0.029826427,0.436566889
1,-0.090287064,-0.045419058,1.029687339,0.290501516,1.745695314,1.219120852
1,-0.06505376,0.099888671,1.107402337,0.558877133,0.845087259,0.339978642
1,-0.112879581,0.118246243,0.924819426,-0.036559807,1.208140099,0.182244815
1,-0.222910394,0.00883383,1.126271043,2.519548154,-0.245384008,1.528015293
1,-0.232877481,-0.086825062,0.962080941,3.351786874,-0.945792884,-1.841457549
1,-0.340853408,0.13994987,1.001100366,0.648311927,1.298573028,0.355735034
1,-0.127103602,-0.027494241,1.058985765,0.139723952,1.070792698,0.674739133
1,-0.124228037,0.083639974,0.832491975,2.081161799,1.249347567,0.116315353
1,-0.110127916,0.081438119,0.94998706,1.329890708,-0.15202166,1.240616541
1,0.105737517,0.096970391,0.904419765,1.629044463,0.314888208,1.197420569
1,-0.127045387,0.079803156,1.005627574,2.37644348,1.051268068,0.807006248
1,-0.037854926,0.230384154,1.052443534,1.832776074,-0.607496168,1.416917142
1,-0.146032327,0.160623699,0.98652056,-0.463155108,-1.134760219,0.553146021
1,-0.186208714,0.104343866,0.964012611,5.270682814,1.699647137,-0.423691838
1,0.088207513,-0.063302455,0.929798332,2.88863254,1.982009438,0.197551396
1,-0.116039721,0.061074666,1.095861716,2.577143361,0.318743711,1.104140763
1,-0.052780842,0.062714204,0.801587074,1.195110098,0.330750379,0.483080418
1,-0.275095787,-0.117933201,0.870342239,4.005076961,1.347417045,-0.878645144
1,-0.155378029,0.038982599,1.002150113,2.49084769,-0.55585184,-0.425942106
1,-0.117190039,0.207514051,0.967689262,3.877335612,2.29006578,1.119540517
1,-0.079031861,0.077803538,0.865246646,0.977945298,2.018045481,2.281086961
1,-0.086792196,0.028924302,1.022170049,0.296045766,1.970418776,1.894988229
1,-0.241724164,-0.028480688,0.935677945,1.445091052,2.79391606,-0.066150251
1,-0.14832368,-0.048468477,0.774534669,2.553798849,-0.763724228,0.251307303
1,0.033816636,0.131637914,0.988533196,2.940947393,0.57463771,0.26233707
1,-0.06165598,-0.085353233,1.058282749,1.340336694,0.575618649,0.622986064
1,-0.214155067,-0.167258176,0.971018163,1.689692884,0.975677001,-0.020159407
1,-0.223933117,0.092886211,0.988125626,-0.439673749,1.162559874,0.252733125
1,-0.144144494,0.214874997,0.921242766,-2.03707264,6.2671094,-0.397740887
1,-0.186393924,0.039383352,0.889078509,-1.304382703,6.061791629,-0.038150257
1,-0.088263413,0.022280688,0.754565628,2.234397817,4.14854428,-0.085797933
1,-0.088194337,0.163555835,1.168589412,-0.972298077,2.879271298,0.959638347
1,-0.055458604,0.009057086,0.992583568,2.743017437,1.079662206,-0.199315892
1,-0.129664426,0.074336568,0.859035865,-2.300044985,5.691635431,0.042091727
1,-0.193570453,0.059566983,1.089191015,3.859074271,6.207554886,0.65884966
1,-0.112650561,0.197102169,1.179297566,1.163757212,3.411833833,0.852208674
1,-0.117094544,-0.007836019,0.858564855,0.179871475,6.679764627,2.787514702
1,0.00470916,0.058800522,1.037990981,-3.537989061,1.022619238,2.487893899
1,0.00055026,0.012951464,0.936003418,-0.852419518,6.166570805,18.21576181
1,-0.091940565,0.197286381,0.938520302,-0.727647178,11.25924093,25.60129329
1,-0.139424534,0.029393966,1.101361718,7.060558692,9.381970384,25.27221988
1,-0.273558867,0.198228388,0.903236503,2.220039971,4.885160548,7.282330038
1,-0.077284904,0.031952976,0.89504758,3.246627253,0.494295413,-14.89998301
1,-0.024923675,0.190879877,1.065210589,10.06253453,4.185287046,-8.053649372
1,-0.177937201,-0.128398606,1.043384978,0.906194246,-1.865954841,-0.730453334
1,-0.258920982,-0.053322138,0.943026535,7.460226663,-3.786254558,-6.701301423
1,-0.141406252,0.069458111,1.071413426,1.976732168,-3.500310349,-5.821798826
1,-0.263444101,0.044813569,0.798423169,-1.663353327,-0.481612655,-2.959947299
1,0.043540676,-0.018111569,1.104445574,-3.132487296,1.377536685,-3.187981341
1,-0.042126529,0.203458178,1.048789675,1.187163474,-6.568941466,-3.029870874
1,-0.091495965,0.068709766,0.948955889,2.234960429,-14.75063604,1.254396529
1,-0.260484706,-0.13228239,0.883979302,2.273227758,0.631212008,-2.707777886
1,-0.129315813,-0.02056229,0.987122318,1.855326393,0.319320587,5.169983609
1,-0.13280747,-0.157484041,1.00349942,2.792250454,3.944577404,6.440273437
1,-0.122967271,-0.086872141,0.998835534,0.530846601,-3.09320555,-0.764867999
1,0.00205777,0.059591232,1.002834772,1.083793571,-1.838826893,2.584254405
1,-0.122074568,-0.078230832,1.204866295,0.042608626,2.162295907,-2.849028849
1,-0.188009231,-0.033338542,1.096377975,2.236284909,-0.527791114,5.470983608
1,-0.021933361,0.209426294,1.016857393,3.586932941,-1.919949401,8.457555519
1,-0.07502459,-0.160946888,0.827454957,4.673770346,-0.083723701,4.560273196
1,-0.131186079,0.197814559,0.897506474,4.757997742,3.192071968,0.050930066
1,-0.235532723,-0.083697646,1.181416045,5.170438131,8.084950863,-0.564267766
1,-0.164962744,0.050400452,1.021959989,7.275490975,7.795723989,-2.58866486
1,-0.245205394,-0.025578357,0.911915229,7.873022371,3.58397565,-0.314120648
1,-0.133361502,-0.121687356,0.986375478,6.938392956,3.129444105,-2.745477817
1,-0.011223071,0.019721642,0.99672362,4.316036596,2.045310483,-1.323303473
1,-0.07660667,-0.145791051,0.878314079,1.667003901,0.250492238,-6.548245899
1,-0.040715334,-0.203395684,0.956730079,2.953366855,-0.799384924,-6.842781
1,-0.044700511,-0.066348036,0.97198939,5.535504425,-1.998888649,-7.120902796
1,-0.112237606,-0.026549344,0.907669637,5.941013037,-2.611722793,-6.024128291
1,-0.18147357,-0.037449151,0.94216001,3.59420256,2.211778571,-0.374122458
1,-0.212647787,0.070583735,0.963244159,2.166184434,-0.493769651,-1.870758664
1,0.200993167,-0.005401731,1.124462346,0.625162097,0.765399441,-0.679830622
1,-0.198367921,-0.00147509,0.943020936,-0.327726222,0.243046902,-0.148581531
1,-0.124105512,0.053485382,1.078700655,-0.767223932,1.726881927,0.194805218
1,-0.187665622,0.100403321,1.076658577,1.171706142,0.90396652,-0.25146115
1,-0.247258148,-0.125420638,0.906521827,1.160769923,2.350482545,-0.549647968
1,0.024626037,0.047468697,1.042732082,0.581545761,0.702760144,-0.774110152
1,-0.076875836,0.047471232,1.10963497,3.050870801,-0.11436534,-0.363273378
1,0.002400022,-0.151270011,1.064615711,3.006613152,0.039288251,-0.765492979
1,-0.232050373,-0.214125726,0.924201716,1.725520467,0.76862135,-0.730277006
1,-0.009277225,-0.05842249,1.024379664,1.241873785,0.572975214,0.084854495
1,-0.045164303,0.18317914,0.949609221,1.634032082,1.40881E-05,-1.21296043
1,0.080411431,0.076322948,0.783853387,2.48390103,0.641205232,0.155811282
1,-0.000534648,-0.065156841,0.910686832,1.584989284,0.605775183,-0.410728877
1,-0.317921008,-0.101146946,1.02969535,1.722206164,0.493366129,-0.150310154
1,-0.051800338,0.049679269,1.056014658,0.838393422,1.847499241,0.518723104
1,0.1500909,-0.000691002,0.966966824,1.118846487,1.286044631,-0.578617405
1,-0.126880999,0.069235687,0.99371532,1.956891493,-0.304970418,-0.819719845
1,-0.110235523,0.073682149,0.986943369,2.491329489,1.643904987,-0.805136312
1,0.012098919,0.063889343,0.966917946,2.486447949,0.451169312,-0.994120232
1,-0.09837108,0.013008231,1.20321768,1.342262013,0.624041859,-0.794763898
1,0.028032733,-0.064311358,1.089279633,1.634379234,-0.034936841,-0.15146231
1,-0.050021753,-0.098691876,1.120506834,2.91087258,1.721611302,-0.338219074
1,-0.173312534,-0.036953081,0.986390603,2.129149766,1.520920515,-0.267235915
1,-0.071003872,0.060094499,1.118157937,1.546663648,1.371858111,0.43549077
1,-0.011787572,0.027025126,0.913490858,1.165561392,0.640056463,0.029995203
1,-0.056117391,-0.160302722,0.838521375,2.250102007,-0.293348538,-0.22283336
1,0.082058451,-0.108004983,0.938741151,1.382740085,0.495023678,0.124477346
1,0.053971489,0.093489609,1.03948275,1.996060513,1.109331459,0.007660614
1,0.066114994,0.000199937,0.764644716,1.587414794,0.400715243,0.356852981
1,-0.098373691,-0.050689356,0.977823623,1.819855475,-0.287584682,-0.187815101
1,-0.063720262,0.018564365,0.915930582,2.300339416,0.739095281,0.422636203
1,-0.177213641,0.025081178,0.907432742,0.802701525,0.227583025,0.199108339
1,-0.092561795,-0.009528578,0.952644088,1.327742291,0.722430028,0.274500621
1,-0.05950866,-0.191946,1.061309758,1.58947315,0.913880671,0.655025089
1,0.057142778,0.103457103,0.926780573,1.279524049,-0.198978437,0.209221375
1,-0.095678132,0.043033284,1.012095255,1.766962882,1.391757918,0.382314342
1,0.014564485,-0.119953251,0.930619448,0.719842708,0.256150897,0.307977064
1,-0.044171507,-0.064662918,1.089436522,2.097752914,0.6059764,-0.014324827
1,-0.04160258,-0.049658465,0.900681763,2.540270726,0.764126853,0.411911749
1,-0.072564738,0.007766285,0.791693936,2.440149376,0.707400845,-0.008992978
1,-0.173322831,0.004110499,1.086044498,0.686771575,0.653214818,0.372906642
1,-0.02944303,-0.060386077,0.943417366,0.181282253,-0.335617644,0.207997676
1,-0.117847287,-0.124895115,1.097765049,2.497370334,1.023807426,0.505856255
1,-0.171444555,-0.019754653,1.102985202,1.733494357,-0.430966171,0.345622768
1,-0.134301486,0.05009802,0.875051774,1.922874502,1.071492599,0.314897114
1,-0.049788418,-0.034721277,0.971100639,0.646980273,0.078865477,0.491270162
1,-0.074999001,0.016028162,1.065340737,1.106805337,0.945561109,0.11791744
1,0.21343602,0.245054631,0.998150077,1.792627768,0.067537792,0.558024163
1,-0.150524031,0.082459163,0.955845178,2.262192933,-0.313299115,0.516390413
1,-0.068417863,0.128051396,1.087326964,2.542829518,0.810151367,0.416979414
1,0.12552858,-0.059258091,0.79326462,0.489247592,0.325252576,-0.191157671
1,-0.043812823,-0.023433632,0.85218023,1.741937752,0.430835034,0.229110875
1,-0.236611435,0.07820341,0.938434954,2.576470549,-0.14254858,0.512928564
1,-0.092479587,0.016809062,0.941412829,2.938284392,0.597743497,0.361840341
1,-0.132501694,0.303538174,0.989443534,1.543688535,0.408300492,0.111142954
1,-0.077320638,0.064171616,0.979295902,0.727499909,0.613348789,0.110299764
1,0.019433552,0.048121437,1.203349853,2.304031353,0.537316018,0.368420512
1,-0.140253203,0.173900968,0.929119782,1.804656017,-0.106163972,0.605633343
1,-0.048791462,-0.008014653,1.087346892,2.046451667,0.930405676,0.489724467
1,-0.130722463,-0.20802805,0.97108599,0.796127889,-0.084453966,0.029309597
1,-0.303971649,0.060197063,0.814903112,1.39793199,0.281331438,0.152464737
1,-0.209321796,0.078412959,0.935322873,2.368766791,0.083782069,0.23576376
1,-0.002808888,0.018480337,1.07763271,1.672177123,-0.160882911,0.281733881
1,-0.138517672,0.155223776,1.012747271,2.249919883,0.73813271,0.580738944
1,-0.013156764,0.229370644,1.151676118,1.583634324,0.547167374,0.22121955
1,-0.006969879,-0.026178983,0.896391051,0.994121042,0.261593857,-0.091983151
1,-0.069608115,-0.046555786,0.993835599,1.150276159,0.585449859,0.208198256
1,-0.080686347,-0.064776829,1.132472377,1.717881404,0.504043065,0.407548259
1,-0.033115164,0.086372473,1.224050565,2.5962768,0.208582134,0.414114179
1,0.005790082,-0.052715132,0.815198299,1.343738611,0.660999962,0.266561094
1,-0.053073891,0.02723508,0.94442954,1.122640918,0.491234957,0.013634912
1,0.117425529,0.063658737,1.058854677,1.68098993,0.622201902,0.017807011
1,-0.144930614,0.026289336,0.94461704,2.05138101,0.056276014,0.278461024
1,-0.141718672,0.078431269,0.960269093,1.584846703,0.907150578,0.161126241
1,-0.060870446,0.004269145,1.112835073,1.36729211,0.374041246,0.09945482
1,-0.099295001,-0.192222518,0.858165587,2.186356655,0.602566185,0.232345411
1,0.051321249,0.087951105,0.951029329,1.353529922,0.274726737,0.217947253
1,0.018242797,-0.0728164,0.991738876,1.926017687,0.948429988,0.232795317
1,-0.066192253,-0.185313984,1.060374056,2.017811568,0.357178769,0.489304335
1,-0.243487562,-0.095730363,0.880467938,1.780032143,0.704934728,0.20374205
1,0.009906456,0.015176448,0.972666505,1.69688763,0.417737615,0.037398247
1,0.037718,0.041092871,1.001641607,1.912416531,1.00989612,0.150482079
1,-0.165376141,-0.020533544,1.06519429,1.353343667,0.834461737,0.257089945
1,0.016049465,-0.029581605,0.805317845,2.003312474,0.594711718,0.339983122
1,-0.048251463,-9.09594E-06,0.925162297,2.24918995,1.337375182,0.113478124
1,-0.056390221,0.076377937,0.949164256,1.830329656,0.176106208,0.517903635
1,0.049783853,0.155419475,1.137341282,2.062726536,1.586519674,0.236678187
1,-0.148477361,0.111304659,0.79446357,0.838901909,-0.14836983,0.472828492
1,0.078029633,-0.167906327,1.218690377,1.885028571,0.72642021,1.575327225
1,0.014379722,-0.016820261,0.946932478,1.078720831,0.681433301,0.482929974
1,-0.221935164,-0.044352747,0.939985599,1.687881587,1.01947261,0.636400782
1,-0.175984391,-0.109244833,0.842712625,1.872711903,0.230692265,0.246156187
1,-0.096007007,-0.142173129,0.870887181,1.337083825,-0.09272208,0.074280402
1,-0.027960811,-0.106322832,1.127684376,2.763166034,1.172672823,0.056919899
1,-0.174963491,-0.165034796,0.921844008,2.057021466,0.246546812,-0.381394852
1,-0.145823386,-0.33315778,0.88262874,1.51208875,1.421150695,-0.36677695
1,-0.095955413,0.064693439,1.015040685,0.433976799,-0.810138084,0.056344661
1,-0.02998225,-0.057906022,1.152728371,2.123988853,0.429646796,0.374087428
1,-0.066669234,0.075903569,0.955157496,2.235331696,-0.130915221,0.49172315
1,-0.173817302,0.098087658,0.946829899,1.942622875,-0.080435256,0.123438102
1,-0.151596369,-0.163815603,0.953962876,2.160193964,0.662270739,0.053067411
1,-0.116535261,-0.063355137,1.059241916,1.388379438,0.594792394,0.021664411
1,-0.269951345,-0.095577071,0.90996676,0.905863554,0.133405244,0.122548675
1,-0.131229854,-0.053142264,1.216503439,1.878366905,1.05058445,0.354876932
1,0.027704733,-0.104565158,0.958937348,1.965392083,0.454588342,0.507689621
1,-0.020715557,0.105661316,1.145969168,1.715139671,0.531544926,0.484381424
1,-0.089456854,-0.195287989,1.079270453,1.936604283,0.633818788,0.154681231
1,-0.193145851,0.094594904,0.763329055,1.86030048,0.883607903,0.179577589
1,0.039551317,0.256711177,1.119357971,1.292239982,0.339684154,0.308201301
1,-0.036908892,0.077408238,1.076071659,1.85688712,0.058656804,0.134972445
1,0.016018698,0.03498238,0.960662466,2.231188842,-0.04206204,0.453011123
1,-0.045882227,-0.080491554,0.963741009,1.786478763,0.33388453,0.050385102
1,-0.232481705,0.031699086,1.065907348,1.640954539,0.575011648,-0.098757857
1,-0.112156938,-0.084600819,0.94944735,1.352816285,0.587902012,0.097902997
1,-0.047649101,-0.066517409,1.00233174,1.402794558,0.302365689,0.163338
1,-0.029415073,-0.176534777,1.020770267,1.779896783,0.885393194,0.222312052
1,-0.021231963,0.013974539,0.981767147,1.81719637,0.201893717,0.110148987
1,-0.065043267,0.131864962,0.806159722,2.011562382,0.447182232,0.208598121
1,-0.057748764,-0.119531636,1.148367123,2.071813748,0.849809284,0.07073836
1,-0.227278192,-0.010513385,0.889836635,1.942809881,0.542882518,0.287716808
1,-0.216322965,-0.076565627,0.992512182,1.960126606,0.482624113,0.211867164
1,-0.202647346,0.011527619,0.860562146,2.141809861,0.325669177,0.074847622
1,-0.291446753,-0.11742392,1.111303022,2.163773458,0.510025725,0.166275405
1,-0.070099062,-0.041165023,0.827385145,1.474997667,0.674012695,-0.004172777
1,-0.002077029,0.172896963,1.052943543,1.589530902,0.290412874,0.445324939
1,-0.274627579,-0.094282094,1.074038093,2.402062372,1.088945638,0.23033921
1,-0.144577476,-0.180501005,0.962790605,1.370075346,1.130996127,0.32984229
1,-0.275001306,-0.006715505,1.05359895,0.54519214,0.621793898,-0.135050305
1,-0.081050822,-0.142021722,1.316712876,1.149998897,0.916490893,-0.076477918
1,-0.083387983,-0.097622247,1.078957747,1.291216065,0.194786535,0.239613799
1,-0.199380902,-0.024583992,0.940083005,2.747181668,0.347988491,0.240074159
1,0.033503932,0.060949853,0.938971681,3.082913535,0.219279838,0.379934593
1,-0.09066139,-0.013401166,0.9264837,2.312140796,0.021957567,0.113513551
1,-0.032996211,0.004558364,0.950989415,1.587998138,0.968384517,0.379167881
1,-0.089079897,-0.318428886,1.01177178,1.176498135,1.126802098,0.068585441
1,0.044274207,0.088586713,1.079125598,1.411795111,0.749558039,0.26007153
1,-0.062974632,-0.072561501,0.979166023,1.40190632,0.448348287,0.234489715
1,-0.029423599,-0.145638138,1.040257278,1.937022283,0.222304917,0.39483438
1,-0.134701261,-0.013855177,1.01726325,2.033850194,0.442859314,0.332517935
1,-0.214149815,-0.076349177,1.005499966,1.795914162,0.501453705,0.221082087
1,-0.239929725,0.064251244,0.947835533,1.36061197,0.732570805,0.235122451
1,-0.123237493,0.076463973,0.93236135,0.892934913,0.178980104,0.437858752
1,0.041895741,0.009854886,1.05848563,1.316972198,0.682058987,0.323666188
1,-0.202393151,-0.000277543,0.962422848,1.256946671,0.619754443,0.192249619
1,-0.139294903,0.241322169,0.879225484,1.538761739,0.526632696,0.377781939
1,0.014926171,0.048183143,0.818397909,1.134894304,-0.09544366,0.443481183
1,-0.111038358,-0.037527618,0.864692494,1.727929826,0.488057088,0.144301365
1,-0.226467829,-0.01342165,0.996962495,1.609524741,0.036606332,0.119856692
1,-0.12115242,0.159437964,0.999940462,1.522205451,0.902128573,0.229091103
1,-0.038815629,0.084245537,1.083321023,1.214861276,0.266129085,0.336895728
1,-0.140039235,-0.023991382,1.060546708,1.398167168,0.530040771,0.137855909
1,-0.062384829,-0.094273818,1.083595605,2.247329189,0.474375313,0.208738139
1,-0.116441424,-0.134530439,1.056478119,1.72177867,0.073876047,0.194428653
1,0.08345444,0.128478094,1.047070601,1.710402752,0.483027572,0.226006625
1,-0.100998218,-0.067385591,0.895754978,1.441122481,0.59100115,0.169640074
1,0.039415642,-0.143276916,1.013926656,1.543444532,0.620071109,0.084807404
1,-0.073753146,-0.07735325,0.895233816,1.663666143,0.509938372,0.312095255
1,-0.062236006,-0.095799474,1.077638282,2.296718073,0.422247076,0.365064317
1,-0.096779135,0.017032181,1.125883541,2.017875928,0.436994402,0.342675907
1,-0.168662121,-0.07484411,0.914290697,1.755344899,0.633281397,0.216634596
1,-0.064318373,0.022604366,1.114444806,1.653027067,0.489064757,0.208339703
1,-0.245729853,-0.043869623,1.104580686,1.790757634,0.560788006,0.259989644
1,-0.086630192,0.109377518,0.91992385,1.351629514,0.518725978,0.023781869
1,-0.044070499,-0.005173253,0.981345476,1.838191578,0.630154605,0.258777298
1,-0.239055014,0.122452854,1.050553502,2.447544812,0.579910242,0.121804074
1,-0.073332594,0.349409051,1.041678191,1.867094606,0.681236188,0.203107301
1,0.056685838,-0.268924008,0.918909963,1.562916906,0.754987722,0.410461522
1,-0.0885536,0.022798372,0.848289765,1.30809966,0.514034921,0.20082687
1,-0.193839415,0.006531338,0.913893706,1.874572434,0.372796392,0.183887803
1,-0.081297573,0.154614756,1.153714767,1.448662297,0.47924794,0.342742689
1,-0.151386614,-0.180381671,0.845342505,2.036030293,0.311589069,0.18917253
1,-0.098170796,0.217368137,0.938969939,2.165121111,0.393413463,0.210614489
1,0.053797709,0.019249697,1.033161239,1.91961656,0.76019725,0.497333514
1,-0.141728461,-0.008603465,0.81730362,1.747287824,0.935241238,-0.123420063
1,0.018288566,0.065249851,1.149981696,2.080062324,0.150505316,0.01655604
1,-0.2146063,-0.038746854,1.242052586,2.09885969,-0.357504838,0.344410078
1,-0.203941577,0.081372023,0.934552031,1.369137306,0.255687994,0.241648956
1,0.078221788,-0.076499052,1.054175399,2.334680705,0.194883095,0.197986353
1,0.085812973,-0.055334537,0.919009503,1.805710202,0.581202152,0.485195684
1,-0.158156125,-0.039572251,0.934260952,2.007827464,0.328946546,0.134196381
1,-0.091281125,-0.070146787,0.930356489,2.172589251,-0.18195817,0.459441166
1,-0.131130775,-0.179797521,0.826521419,1.81947269,0.819215402,-0.015523524
1,-0.159601995,0.120046892,0.995805215,1.903539896,0.968233034,0.09748534
1,-0.188327028,0.185604531,1.113623603,1.463083615,0.443585522,0.082776694
1,-0.007981171,0.155806994,0.980102241,2.176445902,0.765310165,0.269583581
1,-0.075860316,0.001237075,1.004486807,1.818481641,0.64330035,0.177325308
1,-0.056895778,0.033326288,0.921022738,1.90534947,0.455144444,0.180425396
1,5.69822E-05,-0.134924937,0.868458556,1.794597576,1.678635892,0.183462342
1,-0.022689085,0.088616048,0.917046817,1.08303569,0.430183852,-0.063690717
1,-0.081217032,-0.003553211,1.064218678,2.181170036,0.452851167,-0.109774992
1,-0.234048364,-0.059256129,0.953119514,2.342232679,0.013269826,0.244976939
1,-0.0595721,0.04449552,0.945648654,1.772980495,0.597852016,0.589984266
1,-0.063402882,0.217415284,0.876446715,1.187397357,1.286375121,0.307445555
1,-0.035660917,0.155945366,1.120433913,0.391113812,0.702407892,0.522482215
1,-0.107659634,0.003729393,1.140417474,1.509366874,0.522016004,0.091595244
1,-0.145046192,0.072666245,0.936937573,2.289290276,0.509904955,0.237797091
1,0.024427305,0.004579272,0.972427401,1.650421127,0.044203403,0.060793101
1,0.064869432,-0.188727842,0.75617004,1.737193904,0.842006115,0.055986472
1,0.019017082,-0.120552127,1.05571548,2.068868337,0.730432051,0.716765796
1,-0.096703847,-0.075367925,0.987450485,1.722919539,0.59668214,0.169863718
1,-0.015425674,0.152429752,1.013835401,1.438242747,0.260709053,0.185435089
1,-0.014774683,0.004778858,0.924005957,1.855524995,0.18277604,0.167240586
1,-0.151094317,-0.071005907,1.070823129,2.129899913,0.377701208,0.397452051
1,-0.234562735,-0.047342922,0.993717061,1.454407026,0.459567584,0.448173387
1,0.020316422,-0.044492247,0.861810381,1.3806154,1.230020993,0.210968312
1,-0.031586269,-0.040687647,0.954570713,1.568555431,0.706422394,0.125570749
1,-0.093774469,-0.091825037,0.995624084,1.471623187,0.746297519,0.219898397
1,-0.040427087,-0.02568333,1.043178071,1.38583787,0.435071407,0.04600661
1,-0.104959712,0.195543901,0.849329228,1.750381058,0.727968779,0.234115457
1,-0.024218088,0.121206822,0.949639217,1.687115114,0.765684987,0.206932952
1,0.160173524,0.054089724,0.87138602,1.662159976,0.533959341,0.074404813
1,-0.033460808,0.062198808,1.109098733,2.212750047,0.308783984,0.298480455
1,0.029379131,0.20184382,0.98493906,1.232452145,0.8769724,0.116171716
1,0.054635042,-0.041087269,1.058517299,1.27042072,0.453498327,0.52576325
1,-0.180974869,0.024364607,0.997635786,1.853216073,0.405165748,0.341055853
1,0.029108035,-0.000395415,0.891208089,1.890801222,0.675811309,0.215682179
1,0.045226918,0.032903384,1.049622367,1.286838795,0.673806912,0.155772353
1,-0.16619656,0.045668618,1.140700894,1.605041461,0.240258581,0.146703836
1,-0.198598825,0.018403459,0.890607893,1.791215817,0.727337099,0.303535402
1,0.078186036,-0.02501436,1.026470416,1.912016727,0.437883186,0.160553113
1,-0.295069543,0.055502616,0.993856568,1.394168207,0.767557688,0.013031445
1,0.081513942,-0.046940561,0.902612424,1.996132338,0.201634398,0.13585498
1,0.04048919,0.107172788,1.01842495,2.271475793,0.616584812,0.192446767
1,0.033207039,-0.160480296,1.106872855,1.765425853,0.496869065,0.316288926
1,-0.097227172,-0.033095681,0.954591234,1.556420478,0.467274871,0.010402541
1,-0.011943024,-0.060093488,1.164352732,1.964617102,0.357848103,0.217626809
1,-0.057399072,0.006893545,1.040035688,1.693844454,0.110214707,0.354265788
1,-0.10552545,0.046520421,1.002148825,1.889071808,0.225966899,0.08965902
1,-0.012044384,-0.130233741,0.925055204,2.447467481,0.839744101,0.460398048
1,-0.030763757,-0.067927681,1.111900432,1.604251032,0.585403102,0.229874528
1,-0.010302988,0.062449175,0.964771328,1.712323044,0.748865416,0.248451145
1,-0.095843756,0.093105977,0.755619367,1.773969001,-0.19331372,0.365266457
1,-0.014993135,0.032176937,1.058069824,1.956797307,0.601584602,0.366041733
1,-0.174103043,-0.021728149,1.219480392,1.354340358,0.484844258,0.240611739
1,-0.003381705,-0.067844642,0.99190945,1.522331801,0.515410658,0.158948831
1,0.088114491,0.024017639,0.993559824,1.219361301,0.489519386,0.31554894
1,0.007148463,0.020677786,0.998578744,1.97347679,0.601367324,0.53027284
1,-0.043897558,-0.112367362,0.948523609,1.849996625,0.852882766,0.39729985
1,-0.18943088,-0.057875315,0.952031254,1.179261099,0.194375208,0.387595346
1,-0.054087606,0.122054924,1.266596574,1.454759747,0.428701153,0.568016666
1,-0.144331943,0.014218272,1.030559086,1.857299797,1.005343917,0.596827065
1,0.022838223,-0.05163716,0.966439512,1.500285507,0.84147365,0.091680998
1,-0.045856444,0.105250203,0.9473658,1.659645071,0.177577683,0.384771533
1,-0.101932934,-0.165422411,1.05842157,1.772145215,0.094284424,0.341031665
1,-0.087992024,-0.194411485,0.766811471,1.709972219,0.017295587,-0.259418397
1,0.197248364,-0.067972721,0.949373271,1.889243063,-0.03401135,0.021745334
1,-0.061592705,0.117618405,0.936325047,1.957643865,-0.338964453,0.041129063
1,0.090321052,0.041875975,1.011672073,1.310278912,0.524346981,0.157796861
1,-0.108355391,0.046346639,0.945015077,1.861651372,0.8457165,0.315809184
1,-0.257587184,-0.116037407,1.024432448,1.929345201,0.561264412,0.347953449
1,0.055425183,0.186988724,0.992131232,1.501025099,0.680362422,0.056465242
1,-0.143767074,0.039750319,1.021780922,1.289348945,-1.071543958,0.040631459
1,-0.247581234,0.019412214,1.011570848,1.462760309,0.301344119,0.378124035
1,-0.150163863,0.002202571,0.910191382,1.259177081,-0.71505893,0.584130446
1,-0.187180381,0.017547227,1.05910175,2.095947598,0.873375836,0.705117398
1,0.058297195,-0.052393411,0.908740978,2.459421151,0.256199556,0.266290876
1,-0.161773233,-0.02466667,1.017488927,3.116478563,2.798753004,0.374607419
1,-0.013692646,0.002493333,0.792367513,-0.003975944,0.977125433,0.661503792
1,-0.021054439,0.083667213,0.828389234,-2.059585155,-0.41886165,0.880974862
1,-0.041767622,0.171040216,0.90564984,-1.000504703,3.017750441,-0.157887218
1,-0.025377849,0.022349108,0.661553445,-1.3032445,-3.937725173,3.99735312
1,-0.333122839,0.244358428,1.090058717,-0.021000559,15.36640844,23.4617462
1,-0.061112632,-0.06246689,0.998505992,-3.04403531,8.977139478,2.718086596
1,0.101934049,0.005448908,0.921397075,-1.182397235,7.565935188,-4.553745793
1,0.013760918,0.151316983,0.935775324,-0.462451651,4.695343499,-13.1271361
1,-0.058503825,-0.257266123,0.962373777,3.193520639,9.77602521,-2.978750766
1,-0.157883456,-0.169639567,1.231736965,66.97738306,23.37955362,0.680109028
1,0.010920826,-0.11393206,0.822230688,4.185329234,-11.67212262,-32.07876102
1,-0.303698747,-0.105170808,0.931167615,7.952092206,-3.838575798,-4.149959373
1,-0.089432001,-0.009955916,0.79812504,12.55169668,5.322919178,-7.376828651
1,-0.169408448,-0.184252821,1.070634204,46.12498522,21.94600911,13.16630244
1,0.015317691,-0.143347194,1.018771266,-2.000642982,2.647938211,-7.522574394
1,-0.080887096,-0.102887187,0.863274174,0.019531509,-1.465961762,-8.488939284
1,-0.119380383,-0.030198288,0.901335895,8.442418437,16.22933686,-12.68817821
1,-0.073188021,0.12424266,0.900138873,-0.354450223,5.152857305,-4.566841298
1,0.035014412,-0.054479331,1.12411834,-5.215166997,3.12061831,-6.480971417
1,-0.117494188,-0.22214883,0.943624485,-1.742359115,8.373790929,-2.957642496
1,0.007545889,-0.007835924,0.966741597,-0.130217614,1.323009032,4.380197201
1,-0.209487061,-0.016474982,0.892845636,-2.493855163,5.709663318,5.302728449
1,0.057990854,0.058959418,0.981197027,-8.04968708,-1.38820827,-2.778800553
1,-0.129399032,-0.020087804,1.086514493,-6.279558384,-1.706426723,1.166536197
1,-0.020929156,-0.158263075,0.901028222,-6.131986001,-2.730466,-0.103004662
1,-0.119409631,-0.10347352,0.941794973,-1.840087271,-1.135856595,0.611470432
1,-0.034371646,-0.046303756,0.782753857,-0.922210644,0.412133706,0.234387769
1,0.041017784,0.073641092,1.040074342,-0.076931351,0.519191825,2.93501755
1,-0.169318623,0.010842135,0.955960352,1.69408916,1.434430753,3.291819403
1,-0.192288292,0.038031645,0.918559959,1.488153939,0.751783113,5.620427942
1,-0.093686084,-0.045443314,0.875553822,3.322691562,1.629607442,1.86481577
1,-0.125694216,0.105078202,0.853580777,2.339992981,1.117605903,0.3839644
1,-0.054507272,0.026584794,0.951391198,0.802431997,1.388856398,0.031882802
1,-0.023736709,0.052475181,0.994672711,0.499327894,2.417584322,1.629834289
1,-0.078268093,0.23451261,0.9055638,-0.431116137,2.596950442,1.015975673
1,-0.040192658,-0.02077919,1.017572504,1.05334137,3.229465205,0.007436943
1,-0.172227359,-0.099143535,0.7513851,2.208175109,3.819648315,4.918797856
1,0.010502128,-0.052630134,0.997118489,3.070732556,2.786800726,3.092679867
1,0.067782423,-0.087701754,0.929475287,2.980772816,3.083389359,-0.483455094
1,-0.132469996,-0.062663451,1.019161213,-1.361731859,-3.038884647,-4.859148403
1,-0.088331431,-0.045563321,1.128903636,2.37698675,0.846880241,-1.4037896
1,0.029259321,-0.031597678,0.931346798,4.338680636,3.242156103,4.465065856
1,-0.105480817,0.222407175,0.953977871,2.217241126,0.237099626,7.395369428
1,-0.029038344,0.209095178,0.971622464,1.114101151,2.407302023,11.40493455
1,0.096692301,-0.051193181,0.868789914,-1.722184291,2.93020643,12.20655149
1,0.289217532,-0.045048479,1.081300602,-1.503149616,1.333168363,7.326582313
1,-0.020946829,0.013956225,0.794701366,2.910028305,5.491335336,5.586780945
1,0.015857205,-0.073903833,1.035712756,-0.352313922,1.535279155,5.113219203
1,-0.149628876,-0.05828553,0.791209174,-1.508390695,1.422799934,3.598524588
1,-0.1086742,0.164565379,0.985651823,-2.182486439,0.624972053,9.11112258
1,-0.034932019,-0.099495348,0.876281459,-0.652761133,1.315913061,6.396621753
1,0.089043621,0.07466422,0.944130065,-2.325293364,-5.648114154,-0.314265143
1,0.075066379,-0.042026946,1.046959938,3.31573288,5.133199359,-11.73419288
1,0.109962687,0.013148008,0.798510638,0.591730084,2.85367978,-7.505302915
1,-0.120514346,0.208640765,1.037526374,-0.260632476,-9.931811495,-9.603675699
1,-0.122973941,0.236716343,0.92214181,5.791267908,0.861037416,1.553696212
1,0.06612204,0.145356508,0.850013348,1.860985405,0.994531228,6.043656341
1,0.112668258,-0.02284682,1.143342506,3.478423111,-0.438527289,-1.670852898
1,0.132554664,-0.072619508,1.018394511,2.261052238,-3.255804629,-0.902238021
1,0.012302822,0.25376945,0.984152061,2.05311524,1.994891438,-0.984803313
1,0.005269182,0.124158556,0.920250462,1.899686405,0.702955607,-1.773074486
1,-0.044878339,-0.041076161,0.80507109,1.190381003,0.986743341,-0.886137853
1,0.014711861,0.219240179,1.086980532,1.289844011,0.230750492,-1.199196076
1,-0.052320282,-0.038786909,1.040597901,0.58700797,0.457683399,-0.217896985
1,-0.13746451,0.020578968,0.908596482,0.530599637,0.748492931,-2.988996643
1,-0.068436389,-0.020701424,1.156590395,2.227382309,1.822309858,-1.530034861
1,0.132580818,0.029321085,0.95857547,2.551363668,1.015923846,-0.560519503
1,-0.191778259,-0.015560055,0.864167319,2.219402051,0.807426192,0.223788309
1,-0.116051818,0.005516215,1.004705212,2.685157729,0.48895329,0.030591716
1,-0.028196955,-0.048742831,1.086955856,0.949695859,-0.522039829,1.105296475
1,0.134351751,0.098665183,0.964799417,1.421870288,0.953139308,0.361079877
1,0.017894803,0.133230827,0.953186848,1.331068739,-0.593457138,0.779414612
1,0.047429852,-0.000106058,1.020481231,2.204607789,0.128338377,-0.681795213
1,-0.016853826,0.092681505,0.923461509,1.212232304,0.686753689,0.418904702
1,-0.118287174,-0.057216077,0.950227701,1.838326438,0.848638638,-0.097950454
1,-0.229440865,0.07038641,0.827467309,1.078353134,0.73390158,0.688482185
1,-0.091430394,0.046342517,1.239535217,1.46429428,0.843197324,0.578155669
1,-0.104279844,0.090571096,1.076118783,1.53217855,1.04338852,0.195983118
1,-0.060633495,0.006278455,0.865507081,1.662723692,0.516075913,0.945413336
1,0.053360167,-0.027592748,1.115141958,1.583172663,-0.090037312,0.679229013
1,0.018935199,0.003201918,1.11143061,1.016886019,0.453903284,0.384166933
1,-0.046942107,0.020145656,1.089667904,1.393152203,-0.2162745,0.440815162
1,0.013714162,-0.016535365,1.081885281,0.906616831,0.197037878,0.104103186
1,0.086554557,0.031689582,0.960223336,1.491724712,0.112043227,0.278732574
1,0.20744788,0.014559995,1.086476183,1.523261505,0.137263027,0.25214823
1,0.113454444,0.144424148,0.934786889,1.473215453,0.906007236,0.303558917
1,-0.122523555,0.163077502,0.896972035,1.949448054,1.537244225,0.538598093
1,-0.033735729,-0.130068608,0.875341209,1.369322226,-0.03150908,0.159411274
1,-0.001566617,0.052012467,0.885372464,2.081546182,-0.211973251,0.597890709
1,-0.078669131,-0.00291504,0.786604948,1.840961666,-0.424978726,0.260828598
1,-0.140712125,0.105781222,0.960623419,1.849813811,0.51558249,-0.328023613
1,0.064209429,0.064110262,1.070415644,1.185742107,0.117012459,-1.799358915
1,-0.023355078,-0.005461924,1.036461276,0.831862314,-0.42587367,-0.566424563
1,0.088969604,0.086395275,0.95964104,0.6058341,-0.014783558,0.312284637
1,0.122024433,0.089241753,1.127526218,1.049294534,0.080550432,-0.555195018
1,0.062404234,-0.028668386,0.911339999,1.405582792,-0.166330091,0.144730031
1,-0.022101806,-0.085894508,0.94875234,1.834279913,-0.284278579,-0.386228422
1,-0.187128301,-0.12614014,1.1357755,1.237677848,1.211539255,-1.010569495
1,0.088066816,0.16018874,0.981107207,1.86509327,0.159374182,0.119081304
1,0.042546231,-0.08022932,0.913099859,1.469487782,0.42240828,0.226475619
1,-0.10347711,0.04242112,0.873347606,1.5284108,0.280043679,-0.061897578
1,-0.107192856,-0.086927456,0.907125682,1.360443229,0.376784989,0.41001781
1,0.041259696,0.152029624,0.855496391,1.296846057,1.365731383,0.300382117
1,-0.08186956,0.01461136,1.087790656,1.54970865,1.69537884,0.324319617
1,-0.132320349,0.129665921,0.835854965,1.495930069,1.361899631,0.512633925
1,0.036088196,0.090366035,0.878609961,1.940644417,0.687182388,-0.596716199
1,-0.033349133,0.078425375,0.900192023,1.595463931,1.364858144,0.001282419
1,0.043101531,0.154010003,0.97287317,1.968542537,0.209517906,0.098553607
1,0.113595866,-0.17917512,0.925667312,1.727520532,0.714842895,0.320509771
1,-0.00362942,0.111280984,0.970156758,1.306715712,-0.423517131,1.811038737
1,-0.138883506,-0.089348573,0.935880346,1.689238903,0.149606438,0.349701412
1,-0.117191037,-0.097710306,0.862722122,1.058839099,-0.139650282,0.245196125
1,-0.03702266,0.024331125,0.96378703,0.539847321,0.571770701,-0.038289615
1,-0.013444637,-0.001990721,0.979659215,0.751706502,0.594824572,1.654861973
1,-0.147493683,-0.016816071,0.951138401,0.5347092,1.180090457,0.730934002
1,-0.07520638,-0.036751227,0.970805909,0.905720627,2.086186613,0.452726682
1,-0.043356464,0.075596647,1.041911373,1.931719875,1.021820162,-0.205615964
1,-0.23941931,-0.205989861,1.028406313,1.418404816,0.293716475,0.142928866
1,-0.095167558,0.081184417,0.96624654,2.10593671,-1.936462341,0.641609208
1,-0.110667482,0.004783126,1.122549021,2.639545446,-0.88721343,0.419433091
1,-0.018016277,-0.097235798,0.913991541,1.987971025,-1.240020633,0.986829314
1,0.014631769,0.153427221,1.113292419,0.420328726,0.763712433,-0.09555214
1,-0.229629754,-0.017231203,1.020779869,0.322035295,0.253496327,0.543107747
1,-0.17923282,0.102296006,0.930573084,1.415058414,-1.438695466,0.905533182
1,-0.075625057,0.166454115,0.865501888,2.100849886,-0.480112402,0.981255255
1,-0.012218323,0.039550319,1.161416799,1.388809729,0.471879242,2.66411638
1,-0.002598765,-0.029133026,1.027423111,2.233076795,3.200536225,0.284030537
1,-0.106563804,0.126212568,0.918358216,1.912806433,0.315206841,-0.616724507
1,0.129612798,-0.014556942,1.08084823,2.682916433,0.719586236,-0.149460993
1,0.093145621,0.000916431,0.852539943,1.981543245,-0.154323108,0.412063476
1,0.035796305,-0.00834442,1.067001014,1.829661724,1.075059666,-0.05899591
1,-0.147730601,0.063693272,0.906552476,2.130178542,1.676841496,-0.634030244
1,-0.18580205,0.023912529,1.086000789,2.293720622,0.579655566,-0.364332002
1,-0.054139631,0.190935362,0.985275697,2.409989021,-0.26993318,0.39803134
1,-0.162347143,0.103438427,1.033301841,2.655115041,-1.238167633,-1.914984722
1,-0.207335465,0.064618537,1.001948133,1.936951603,1.809742112,-1.543055834
1,0.06059272,-0.234421107,1.000612319,2.66750456,1.356086663,-1.329088185
1,0.02878344,0.096205812,1.140587131,1.489578208,-0.25975071,1.003542088
1,0.096548307,-0.200568924,0.967713094,1.777119269,-0.882921197,1.203024638
1,0.18645206,0.048533537,1.083214977,1.958950689,0.025742909,-0.01167525
1,-0.056427651,0.050049827,0.972504952,1.85896374,0.655567699,-0.071531439
1,-0.064051485,0.226319894,1.200051112,1.310995091,1.848723472,0.00267332
1,0.004755382,0.032633544,0.948694686,0.911991654,1.955870057,0.764785439
1,0.007057373,-0.102479409,0.979925716,0.947598912,0.332447474,0.799534322
1,0.09738543,0.219186008,1.013879195,0.662036967,-2.267114474,3.866802966
1,-0.147091749,0.149753218,1.081806324,0.369529455,-1.384210188,3.150613912
1,-0.02529223,-0.0365362,0.972525264,-0.011125768,-0.306237739,0.293804495
1,0.040562216,-0.102300435,0.991868627,0.917869457,0.689688398,-0.202241319
1,-0.035246388,0.06226664,1.10576426,1.35766336,-0.267930557,0.692285609
1,0.073403921,0.156694719,1.008898531,11.40507995,2.49874634,8.558990489
1,-0.112353681,0.077390243,1.035367753,3.19122622,-1.367161275,5.537108152
1,0.126076758,0.007714635,1.124015033,3.770010236,-1.119725675,0.619305363
1,-0.312861908,0.040414735,1.039314473,3.470525641,-0.443546797,-1.269473539
1,-0.099768142,0.246899751,1.085785602,1.568571175,0.048782065,-3.445263823
1,0.156057311,-0.066328472,1.022479105,1.908938938,2.342809472,-7.79232662
1,0.037358773,0.06187636,1.075802564,3.709721435,-0.484657666,4.371125006
1,0.106778339,-0.085745871,1.166104747,5.45995773,-1.501987156,4.651812963
1,-0.018977486,-0.111123721,0.962537578,4.559492972,-1.402683695,-2.936972822
1,0.128927582,-0.073165444,1.026613417,4.704547758,-2.078194356,0.143363599
1,-0.075158773,0.09963884,1.035912317,3.671786552,-2.518614254,0.866200518
1,0.040891276,0.076002803,0.985115623,2.806136539,-0.837008456,-2.324599278
1,-0.15797414,-0.22683091,0.947519931,3.263259517,-2.409587506,-5.410729175
1,-0.096039886,-0.139688567,0.957712802,4.251424805,-0.105636275,0.32329226
1,0.017845462,-0.016886651,1.058724495,7.108936195,-0.511916183,-2.545276008
1,-0.049972536,0.189029994,1.052195584,5.285827546,2.230740052,-4.177275375
1,-0.017073627,0.018994143,0.967374392,5.50488527,0.490656239,-1.88091926
1,-0.164798048,0.133791692,0.851423893,-0.85607895,7.491559616,-21.53947142
1,-0.131786053,-0.141572155,1.054570372,3.183247621,3.523737827,-26.20587308
1,-0.07932073,-0.063439481,0.861652965,5.317223576,1.554053704,-19.21360204
1,-0.233203044,-0.166543219,0.87430902,3.137184017,5.001147534,-22.72179248
1,-0.022007227,-0.01995915,0.92810606,3.771138801,4.975812808,-17.81230222
1,0.087466169,-0.02533232,0.825844836,6.404408249,3.823281617,-13.28902671
1,-0.032516902,-0.228934109,1.059387455,7.778950605,2.756789091,-8.725160492
1,-0.237207663,-0.002807227,1.02649546,8.021930455,3.976961743,-10.23671784
1,0.07857899,-0.046869788,0.817666442,-7.52615927,1.703661103,-20.86610635
1,0.084012499,-0.150949109,0.943414357,-9.227996174,3.449232841,-18.51780252
1,0.072866872,-0.053534182,0.940387252,-2.826497988,-0.478984258,-9.789387964
1,0.055991556,-0.035436561,0.994321122,-1.544730921,0.172219222,-5.288396975
1,-0.166394655,0.09083771,1.061569629,-0.489914532,0.38389121,-5.548361438
1,-0.028884711,-0.084175753,1.062473289,5.19535361,1.22039628,-8.874589442
1,0.041947188,-0.010723452,1.098249705,6.493075888,5.517453539,-24.19090813
1,-0.403920608,0.10245233,0.933988547,1.870857702,1.353412039,-8.602800535
1,0.018301915,0.088069567,0.977643634,0.276737451,-0.645819337,-1.162209064
1,-0.12466796,0.066906078,1.129544979,2.818491846,-0.996810474,0.858270842
1,0.036077466,-0.293632016,1.035241379,6.080977334,-1.304604207,0.80352114
1,0.001516846,-0.0149954,1.04215888,6.433480127,1.087130331,-6.181797055
1,-0.10901598,0.006826204,1.009501341,2.766874593,1.209238145,-0.969935153
1,-0.029604909,0.01948175,0.991324759,3.84133883,0.012790819,-14.22507365
1,0.123721748,-0.083116606,0.966289413,12.76106093,3.502473906,-17.59180444
1,-0.015555732,-0.136841541,1.076390469,0.025625904,2.100167064,-1.477490384
1,-0.151659717,-0.051523303,0.894679729,-4.042908061,-1.006668065,-5.242880352
1,-0.073219607,-0.126913448,0.966464455,-4.328753704,-0.98202324,-4.84255313
1,0.009071354,-0.021138812,0.982911349,-3.217924042,-0.540789184,-2.415309248
1,-0.006488939,0.125110111,0.737367592,-4.090404132,-1.518839892,-5.069444656
1,0.049235915,-0.080629242,0.932864812,-4.176669077,0.021321036,-2.251433802
1,-0.009924852,0.079435073,1.137247347,1.783710298,-0.496882345,-5.967115685
1,0.053102537,0.208303264,1.150661045,-0.112069854,-0.391802822,-4.31340507
1,-0.15935349,-0.056818522,1.075886894,1.761438227,1.12407776,0.290606904
1,0.031203101,-0.012670356,1.157621128,1.736771984,-0.18600546,1.233807777
1,-0.118012693,-0.034423757,0.957496604,2.403890993,-2.444921937,6.729134884
1,-0.007706011,0.034038496,0.975316848,2.949429447,1.930693983,1.100811403
1,0.047470603,-0.058724361,1.012669113,0.376226434,-3.794849996,1.824544105
1,-0.016545974,-0.012282965,0.815714464,2.634570595,0.387902167,-1.822049386
1,-0.016568625,-0.071929195,1.057780453,5.223242665,1.974333219,-1.754387169
1,-0.086724938,-0.026870978,0.967336666,8.366205113,-1.027985207,-1.736550518
1,-0.135044628,0.120448828,0.752976682,10.90935809,1.255190697,-6.455343748
1,-0.084184332,-0.085415567,0.979151541,6.165976106,2.705463096,-3.05234381
1,-0.31811553,-0.178134296,0.966564151,1.56523246,4.479802466,-1.864786744
1,0.02133523,0.097998537,0.939890874,1.073461416,4.24490522,3.667595385
1,0.098097765,-0.042349439,1.167461726,-1.882042881,7.609052387,-0.656455287
1,-0.163246231,0.047568036,0.898159979,-7.540491848,-6.896040232,-3.749282514
1,-0.024896494,-0.111740761,1.04003607,-2.96402412,6.023976957,8.01229096
1,0.12260143,-0.11830587,1.010604112,-9.433308332,-10.50997123,-2.768232997
1,-0.214221074,0.099245035,0.998708737,0.98256747,4.978543311,6.296801969
1,-0.185781831,0.039817398,0.974762634,-5.182277165,-2.793563646,-10.53614708
1,-0.223282276,0.082695129,1.090811411,3.846581119,3.249494688,-8.70436862
1,-0.272764033,-0.112025036,0.900671907,-0.500203066,-3.64447329,-4.031917507
1,-0.133282619,0.098652661,1.05763156,0.3971082,-2.419770967,-2.517391918
1,-0.048266974,-0.030775993,0.891066348,0.770504343,-2.144225899,7.189415636
1,0.040606016,0.036663616,1.115130672,4.464482558,1.842690437,6.730118877
1,-0.020117251,0.218720638,0.965242272,0.59571691,-0.934459012,6.336003215
1,-0.287815255,0.073099421,0.871524677,0.822523623,5.571196755,10.29700856
1,0.147480292,0.31775289,1.162372211,-1.2489234,1.367517753,15.91048481
1,-0.218907376,0.074446861,1.110027107,-2.587742825,11.442452,19.44414969
1,0.038641771,0.153687804,1.059789001,-3.059243105,-1.374224786,22.47072404
1,-0.079998801,-0.149568154,0.982979297,-3.829563406,3.807141503,14.82434915
1,-0.024427935,0.246200843,1.070233197,-3.616857532,6.117357642,13.38508258
1,-0.20832352,0.095021127,0.86966728,-0.541115633,4.258180604,7.974157781
1,-0.084378363,0.182402053,0.956643258,-1.820624445,4.900157226,9.902077685
1,0.11305105,0.176583944,1.039315373,4.1437529,-0.755723281,8.536155152
1,-0.002545779,0.122384672,1.105290456,0.332235417,5.10933989,3.917090171
1,-0.262850259,0.130013884,0.941705414,-5.810248253,9.995124405,24.31578976
1,0.032212617,-0.013015332,1.0358462,-5.577060093,-15.47500853,-0.262713111
1,0.16060689,0.215116717,1.156493451,-2.292428423,-7.641078341,4.187950262
1,-0.125128193,-0.092061711,0.936848631,0.662282626,-7.555976039,-3.224660031
1,-0.108671975,0.007892461,1.126201866,3.552453731,9.873860608,2.050550794
1,0.019151101,0.240566545,0.863476146,8.62510834,-4.036594957,-16.67426884
1,-0.033924606,0.14585293,1.063858685,6.855415141,-0.527255003,-14.17390221
1,0.135691503,0.100406482,1.106090204,9.163732759,-0.251541461,-10.67188626
1,-0.155244171,-0.061392396,1.217796932,7.872977619,2.617119054,-26.08826899
1,0.086093816,-0.001112235,0.907056306,10.08650062,-4.299398775,-26.75402926
1,0.058412755,0.046123858,1.040640488,8.266519724,-12.17573055,-3.843268093
