Class,AccX,AccY,AccZ,GyroX,GyroY,GyroZ
1,0,0,0.99,1.89,-0.12,0.18
1,0,0,0.99,1.71,0.12,0.24
1,0,0,0.99,2.08,0.12,0.24
1,0,-0.02,0.99,2.44,0.37,0.18
1,0,-0.01,0.99,-0.18,1.95,0.37
1,0.01,0,0.99,-0.12,1.4,0.37
1,0.01,0,0.99,2.32,-0.37,0.18
1,0.01,-0.01,0.99,1.53,-1.34,1.16
1,0,0,0.99,2.69,-0.61,1.34
1,-0.01,-0.01,0.99,2.93,-1.34,0.98
1,0,-0.01,0.99,2.26,1.22,-0.24
1,0,0,0.99,1.65,0.98,0
1,0,-0.01,0.99,1.83,0.79,0.12
1,0,-0.01,0.99,1.65,0.06,0.49
1,0,-0.01,0.99,1.65,0.79,0.24
1,0,-0.01,0.99,1.34,0.49,-0.06
1,0,0,0.99,1.65,0.06,0.31
1,0,0,0.99,1.83,0.31,0.37
1,0,0,0.99,2.01,0.12,0.18
1,0,-0.01,0.99,1.95,0.43,0.24
1,0,-0.01,0.99,2.26,0.49,0.18
1,0,-0.01,0.99,2.14,0.55,0.31
1,0,-0.01,1,1.95,0.85,0.43
1,0,-0.01,0.99,1.4,0.37,0.31
1,0,0,0.99,1.46,0.67,0.12
1,0,-0.01,0.99,1.65,0.24,0.31
1,0,0,0.99,2.01,0.37,-0.12
1,0,-0.01,0.99,1.83,0.55,0.18
1,0,-0.01,0.99,1.89,0.31,0.31
1,0,-0.01,0.99,1.95,1.04,0.12
1,0,-0.01,0.99,1.71,0,0.31
1,0,-0.01,0.99,2.2,0.37,0.31
1,0,-0.01,0.99,2.2,0.18,0.31
1,0,-0.02,0.99,2.01,0,0.55
1,0,-0.02,0.99,1.28,0.73,0.49
1,0,-0.01,0.99,1.28,1.28,0.49
1,0.01,-0.01,0.99,1.34,1.53,0.79
1,0,0,0.98,2.2,-0.18,1.16
1,0.01,-0.02,1,3.36,0.85,0.61
1,0.01,-0.01,1,2.81,0.37,0.12
1,0,-0.01,0.99,2.75,15.5,0.18
1,0,-0.01,0.97,3.85,1.65,0.49
1,0,-0.01,0.99,1.34,1.34,0.79
1,0,-0.03,1,2.38,2.38,1.4
1,0.01,-0.01,0.99,3.05,4.39,0.85
1,0.01,-0.02,0.99,2.75,1.1,1.34
1,0.01,-0.02,0.99,3.05,0.49,0.73
1,0.01,-0.02,1,2.08,1.04,0.79
1,0.01,-0.02,0.99,1.59,0.06,0.79
1,0.01,-0.02,0.99,1.46,0.31,2.69
1,0.01,-0.02,0.99,0.92,-0.43,1.59
1,0,-0.02,0.99,1.59,0.37,1.34
1,0.01,-0.01,0.99,1.46,0.06,0.18
1,0.01,-0.02,0.99,1.65,-0.73,0.12
1,0,-0.02,0.99,0.49,-0.73,0.49
1,0.01,-0.01,0.99,0.24,0.31,1.22
1,0,-0.01,0.99,0.49,-0.61,2.75
1,0,-0.02,0.99,0.67,0.43,1.59
1,0,-0.01,0.99,0.37,2.2,-0.06
1,0.02,0,1,2.81,-0.61,0
1,0,-0.02,0.99,2.81,-0.43,-0.18
1,0.01,-0.01,0.99,0.92,2.38,0.12
1,0,-0.01,0.99,0.61,0.61,0.49
1,0.01,-0.01,0.99,1.46,1.1,0.12
1,0.01,-0.01,0.99,2.38,0.37,0.31
1,0.01,-0.01,0.99,1.89,0.85,0.18
1,0,-0.01,0.99,2.08,0.12,0.24
1,0.01,-0.01,0.99,1.89,0.31,0.31
1,0.01,-0.01,0.99,-0.61,-2.5,0.18
1,0,-0.02,1,1.53,-0.49,0.24
1,0.01,-0.01,1,1.89,0.18,0.43
1,0,-0.01,0.98,2.01,0.43,0
1,0,-0.01,0.99,1.34,0.49,0.12
1,0.01,-0.02,1,1.4,0,-0.06
1,0,0,0.99,2.2,-5.62,0.67
1,0,-0.02,1,0.49,1.04,1.28
1,0,0.01,0.99,1.95,1.04,4.82
1,0.01,-0.05,0.97,-0.61,-1.46,-2.87
1,0.01,0.02,1,2.32,-1.22,0
1,-0.01,-0.01,0.99,3.48,-1.4,-0.55
1,0,-0.01,0.99,3.48,1.77,-0.85
1,-0.02,-0.05,0.99,2.2,1.71,-1.46
1,-0.01,-0.03,1,2.56,1.04,-0.31
1,0,0,0.99,2.99,0.61,0.73
1,0.01,0,1,2.5,2.14,-0.06
1,0.01,0.03,0.99,-1.89,3.54,6.9
1,-0.01,-0.02,0.99,1.16,3.85,9.4
1,-0.01,0.01,1,-2.62,0.92,2.26
1,0,-0.02,1.02,-0.67,1.95,1.95
1,0.01,0.01,1,-1.59,-2.87,4.7
1,-0.06,0.03,1.01,-2.69,-6.53,-4.09
1,-0.05,0,0.99,0.85,-5.74,-9.03
1,-0.04,0.01,0.98,3.17,-3.11,0.37
1,-0.04,0.01,0.99,3.36,-0.98,1.28
1,-0.04,0.04,0.99,2.93,-1.65,7.26
1,-0.03,0.01,1,-1.28,8.85,-1.83
1,-0.02,0.02,0.98,-2.62,6.1,16.11
1,0.03,-0.01,1,3.85,3.36,16.11
1,0.02,-0.01,1.04,2.38,3.91,-3.42
1,0,0.02,0.99,3.3,-0.73,11.84
1,-0.05,0,0.98,2.81,2.01,1.53
1,-0.02,0,0.98,7.2,-1.77,2.99
1,0.03,0.01,0.99,2.62,0.85,0.06
1,0.03,0.03,0.98,5.25,0.73,0.61
1,0.04,0,0.99,2.75,0.73,3.05
1,0.02,0.02,0.99,5.19,2.75,5.62
1,0.02,0.02,0.99,2.14,3.85,5.92
1,0.03,-0.03,1,3.54,5.19,5.19
1,0.03,-0.02,0.99,0.06,3.3,4.33
1,0.05,-0.01,0.98,2.93,5.19,-5.74
1,0.04,-0.04,0.98,5.92,1.89,4.88
1,0.03,-0.03,1,7.69,5,-6.04
1,0.04,-0.05,1.01,3.85,1.04,-2.38
1,0.02,-0.04,1,9.22,1.22,-5.31
1,-0.03,-0.05,1,6.77,0.37,-3.3
1,0.05,-0.06,0.99,2.87,-2.26,-3.54
1,0.04,-0.06,0.99,-1.22,-2.5,-5
1,0.03,-0.04,0.97,1.16,-2.32,-2.56
1,-0.03,-0.07,1.01,3.72,0.85,-9.58
1,0.01,-0.03,0.93,-13.98,-4.82,-11.6
1,0,-0.06,0.99,1.4,-2.44,0.67
1,-0.03,-0.02,0.96,3.36,3.97,10.68
1,-0.02,-0.03,0.97,0.18,0.31,10.31
1,-0.01,-0.04,0.98,2.69,-1.53,1.59
1,-0.03,0,0.99,-0.49,-2.69,2.38
1,-0.02,-0.02,0.99,-1.65,-3.42,-0.67
1,-0.02,-0.02,0.99,-2.2,-1.77,-1.04
1,-0.02,-0.02,0.98,-0.85,-2.2,-2.26
1,0.03,-0.02,0.98,-1.59,-1.04,-3.3
1,0,-0.04,1,-0.43,-0.73,-3.78
1,-0.02,-0.02,0.99,-1.22,-0.92,-4.39
1,0,-0.01,0.99,-0.31,-0.18,-1.53
1,-0.03,-0.01,0.99,0.55,-2.01,-0.73
1,-0.05,0.02,1,1.28,-0.37,-1.95
1,-0.04,-0.01,0.99,1.28,0.55,-4.52
1,-0.03,-0.03,0.99,1.89,-1.28,-4.21
1,-0.03,-0.03,0.99,0.18,-1.04,2.2
1,-0.04,-0.01,0.98,0.49,-0.24,2.81
1,-0.04,0,0.99,0.98,0.06,-2.38
1,-0.02,0.06,0.98,1.04,1.16,-4.03
1,-0.03,0,0.98,-0.18,0.79,-0.49
1,-0.03,0.01,0.98,0.06,1.71,-1.16
1,-0.03,0,1,-0.49,0.12,2.14
1,-0.03,0.03,0.99,-0.79,0.79,0.67
1,-0.02,0.04,0.99,0.06,1.1,2.5
1,-0.02,0.04,0.99,-0.67,0.31,0.12
1,-0.03,0.02,0.99,0.24,0.43,3.97
1,-0.02,0.04,1,1.28,2.14,2.2
1,-0.02,0.01,0.98,2.93,3.85,-2.08
1,0.01,0.04,0.99,2.44,2.56,1.04
1,0,0.05,0.99,2.32,1.46,0.12
1,-0.05,-0.04,1.02,5.13,4.82,11.66
1,-0.06,0.01,0.99,2.08,1.4,3.72
1,-0.01,0.01,0.99,2.56,1.4,0.12
1,-0.03,0.02,0.98,1.77,-0.55,1.77
1,0.01,0.02,0.99,2.01,1.1,-1.89
1,0.05,0.04,0.99,1.22,-0.55,-0.55
1,0.05,0.03,0.99,1.59,-2.38,4.27
1,0.02,0,1,2.56,-1.53,6.59
1,-0.03,0.01,0.98,1.46,-1.4,3.78
1,-0.02,-0.04,0.97,2.26,1.28,2.44
1,0.07,0.02,0.98,1.4,2.87,1.4
1,-0.03,0,0.98,1.59,2.62,-2.08
1,-0.03,0.02,0.99,1.71,2.14,-2.81
1,-0.02,0,0.99,3.11,2.08,-3.17
1,-0.04,0.02,0.99,2.2,2.81,-4.58
1,-0.02,0.02,0.98,2.62,3.54,-2.2
1,0.07,0,1,2.87,1.59,1.22
1,0,0.01,0.99,1.59,0,4.09
1,0.03,-0.01,0.99,1.71,0.43,0.18
1,0.02,-0.01,0.99,2.14,0.49,-1.28
1,0.05,-0.04,1,2.81,1.1,0.55
1,-0.06,0.04,0.98,4.52,-0.12,1.04
1,-0.01,-0.02,0.99,4.15,-1.59,2.56
1,-0.01,-0.01,0.98,4.52,-2.5,3.17
1,-0.01,0,0.99,3.66,-2.32,2.69
1,-0.03,-0.01,0.97,2.87,-0.85,3.6
1,-0.02,0,1,4.15,-1.28,2.44
1,-0.02,-0.01,0.99,3.48,-1.04,0.49
1,-0.03,-0.03,1,0.85,0.79,0.43
1,-0.16,0.19,0.91,0.98,-0.61,-2.2
1,-0.01,0,1,0.92,1.71,-0.79
1,-0.03,-0.01,0.99,2.75,-1.59,0.55
1,-0.02,-0.04,0.99,1.77,0.31,0.37
1,-0.02,-0.05,0.99,2.01,-0.12,1.89
1,-0.02,-0.03,0.99,0.37,1.83,1.34
1,-0.01,-0.04,0.99,-0.24,0.73,0.55
1,-0.02,-0.01,0.99,-1.65,0.85,0.24
1,-0.01,0,0.99,-4.52,-1.28,1.95
1,-0.02,0,0.99,-7.63,-4.58,2.75
1,-0.03,0,0.99,-7.81,-4.39,6.35
1,-0.03,0.03,0.99,-3.48,-0.98,2.62
1,-0.04,0.02,0.98,-8.91,1.95,0.49
1,-0.03,0.02,1.04,-18.68,6.35,3.85
1,-0.03,0.08,0.96,-48.65,3.72,8.79
1,-0.04,0.14,0.98,-19.59,-6.41,6.53
1,-0.05,0.18,0.96,-4.64,-7.93,7.69
1,-0.04,0.17,0.99,-4.88,-1.46,7.63
1,-0.08,0.17,0.96,-12.02,-4.33,6.53
1,-0.06,0.18,0.96,4.52,-2.5,5.98
1,-0.07,0.16,0.99,2.38,2.5,6.35
1,-0.06,0.18,0.97,2.2,2.08,5.07
1,-0.04,0.2,1,6.23,3.6,3.11
1,-0.04,0.2,0.96,6.29,2.5,4.52
1,-0.04,0.18,0.97,6.59,7.45,-0.37
1,-0.04,0.17,0.99,0.06,5.92,-0.24
1,-0.05,0.18,0.97,8.36,2.69,-1.95
1,-0.04,0.18,0.98,10.8,-2.38,-1.95
1,-0.08,0.17,0.95,9.7,-0.18,-1.46
1,-0.03,0.14,0.99,18.8,-5,6.41
1,-0.07,0.13,1,32.78,-22.34,2.32
1,-0.06,0.09,0.99,38.64,-15.14,8.91
1,-0.07,0.06,1,19.29,-0.49,-0.24
1,-0.05,0.04,1.01,19.47,-1.4,6.84
1,-0.07,0.01,1.02,19.84,-0.12,7.93
1,-0.08,-0.04,0.98,34.3,0.37,3.48
1,-0.08,-0.04,1,36.62,2.75,4.88
1,-0.06,-0.15,0.99,49.01,10.8,12.33
1,-0.03,-0.19,0.99,62.74,-0.79,5.55
1,-0.02,-0.24,0.96,31.8,14.89,-8.06
1,-0.02,-0.23,0.96,12.51,11.96,-10.07
1,-0.02,-0.29,0.95,-0.55,15.2,-7.26
1,-0.03,-0.22,0.94,6.59,2.93,0.98
1,-0.02,-0.24,0.97,0.12,4.15,-2.5
1,-0.02,-0.29,0.94,0.79,-2.14,0.85
1,-0.03,-0.26,0.96,4.39,1.71,-2.2
1,-0.09,-0.29,0.94,7.14,0.55,1.04
1,-0.1,-0.33,0.98,0.98,-3.66,-20.69
1,-0.12,-0.36,0.92,10.8,-2.81,-23.19
1,0,-0.24,0.95,18.62,1.28,-7.32
1,-0.06,-0.33,0.92,-4.09,-1.71,11.11
1,-0.03,-0.29,0.97,-11.54,-0.79,3.6
1,-0.08,-0.25,0.91,2.87,-2.38,-7.57
1,-0.1,-0.26,0.9,-26.18,-8.3,-10.01
1,-0.05,-0.16,1,-35.34,-13.55,-1.4
1,-0.03,-0.21,0.97,-16.3,0.06,10.8
1,-0.1,-0.15,0.99,-23.74,-1.89,5.74
1,-0.09,-0.16,0.98,-6.53,10.44,-0.92
1,-0.07,-0.15,1.07,-9.58,10.8,-0.85
1,-0.04,-0.14,0.97,-7.39,3.3,-0.06
1,-0.05,-0.15,0.98,-11.05,1.83,6.16
1,-0.07,-0.07,1.02,-13.92,-0.18,-4.7
1,-0.06,-0.1,0.99,-13.24,2.2,-2.08
1,-0.07,-0.05,0.96,-17.76,0.67,-3.42
1,-0.08,-0.04,0.97,-21,2.26,-2.2
1,-0.07,-0.04,1,-22.83,2.93,-4.03
1,-0.05,0,0.99,-14.65,2.38,-1.1
1,-0.05,0.03,0.98,-7.2,3.05,1.46
1,-0.04,0.04,1,-3.54,0.55,-2.01
1,-0.05,0.04,0.97,-4.58,2.62,-4.33
1,-0.03,0.05,1,-0.18,3.48,-2.56
1,-0.03,0.07,0.98,-0.37,4.88,-1.04
1,-0.02,0.05,0.99,3.3,0.73,-3.91
1,-0.05,0.04,1,3.05,-0.67,0.92
1,-0.02,0.05,1,3.05,0.49,4.15
1,-0.06,0.06,1,3.05,1.77,7.2
1,-0.06,0.06,0.98,-2.2,4.46,0.49
1,-0.02,0.06,0.99,-0.61,1.95,0.92
1,-0.02,0.08,1,1.22,1.95,0.55
1,-0.05,0.06,0.99,-0.67,-0.37,2.01
1,-0.07,0.06,0.98,-0.92,-3.85,2.08
1,-0.05,0.06,0.99,1.65,-3.3,2.87
1,-0.02,0.07,1,-1.95,-1.65,3.11
1,0.05,0.05,0.98,2.26,-2.87,3.6
1,-0.04,0.08,0.99,1.16,-12.08,2.56
1,-0.04,0.09,0.98,-1.89,-15.01,2.93
1,-0.04,0.09,0.99,6.96,-3.72,2.2
1,-0.06,0.11,0.97,3.05,-3.48,-1.71
1,-0.07,0.08,0.99,0.12,-8.61,-0.98
1,-0.08,0.07,0.99,-0.12,-7.69,-2.62
1,-0.08,0.08,0.97,-1.83,0.43,-1.53
1,-0.09,0.08,1,-2.69,6.16,-1.22
1,-0.06,0.08,0.99,-3.11,1.77,-2.08
1,-0.06,0.08,0.99,2.08,7.93,0.85
1,-0.07,0.07,0.99,1.77,-0.18,2.14
1,-0.07,0.08,0.98,3.6,-2.38,6.35
1,-0.07,0.07,1,2.93,5.19,3.42
1,-0.07,0.07,0.99,2.01,-0.43,3.72
1,-0.08,0.08,0.99,1.16,3.3,1.77
1,-0.07,0.09,0.98,-1.71,-0.12,2.81
1,-0.05,0.06,0.99,-0.67,-2.56,4.15
1,-0.07,0.11,0.97,0.85,-3.54,7.87
1,-0.06,0.08,0.96,3.78,7.45,7.2
1,-0.06,0.09,1.01,2.62,7.57,6.59
1,-0.07,0.1,0.97,2.62,5.62,3.91
1,-0.05,0.11,1,6.9,-1.46,-2.44
1,-0.06,0.08,1,4.88,-7.69,-6.35
1,-0.08,0.07,0.98,7.69,-0.85,1.04
1,-0.09,0.04,0.97,6.16,11.66,0.49
1,-0.04,0.04,0.97,4.52,25.27,1.71
1,-0.04,-0.03,0.91,17.88,6.96,-1.28
1,-0.02,0.01,1.02,15.87,10.62,-1.22
1,0.06,0.04,1,5.13,20.94,-6.23
1,0.01,0,1,15.81,4.09,-0.73
1,0.04,-0.01,0.99,4.46,-4.15,-3.48
1,0.02,-0.04,0.98,2.99,-3.17,-3.85
1,0.02,-0.02,0.99,-8.42,2.99,-11.29
1,0.03,-0.02,0.99,-9.64,-1.89,-7.32
1,0.03,-0.02,1,-6.59,1.71,-5.8
1,0.01,0,0.99,-3.97,3.85,-3.72
1,0.03,-0.02,0.97,2.14,4.46,-3.42
1,0.01,0,1.02,8.24,-9.89,-0.67
1,-0.01,0,0.99,6.59,1.1,0.18
1,0.01,0.03,0.99,1.77,-1.53,-7.93
1,-0.02,0.01,0.99,-6.59,1.22,-6.96
1,0.01,0.01,0.98,-0.73,-1.59,-7.63
1,-0.03,0.03,1,-9.64,4.64,-2.75
1,-0.02,0,1,-5.19,-6.29,-2.08
1,-0.03,0.01,1,11.23,-3.36,-5.07
1,-0.04,0.03,0.93,-0.12,-4.46,-5.19
1,0.02,0.08,1.04,4.03,7.32,-7.87
1,-0.07,-0.01,1,-0.73,6.16,-2.87
1,0,0.04,0.97,-10.8,9.52,-0.06
1,0.04,0.03,0.99,-15.32,5.07,-0.92
1,-0.03,0.08,0.99,-5.98,-6.41,6.29
1,0.02,0.1,0.99,-11.47,-2.38,-2.14
1,-0.03,0.07,1.01,-2.5,0.67,-4.58
1,0.03,0.08,0.97,-3.42,-3.6,-6.29
1,0,0.09,0.98,-8.3,-2.69,-4.21
1,-0.02,0.11,1,5.92,-6.77,-0.92
1,0,0.11,0.97,5.43,-3.78,-0.73
1,-0.05,0.08,1,21.85,-5.31,0.31
1,-0.08,0.04,0.96,-4.52,-1.28,0.61
1,-0.02,0.14,1,-8.48,8.67,-0.43
1,-0.03,0.11,0.99,-4.82,5.62,1.16
1,-0.02,0.11,0.99,2.32,2.75,5.62
1,-0.01,0.1,1,3.97,-0.55,5.31
1,-0.05,0.08,0.99,2.56,-0.43,5.37
1,-0.06,0.07,0.99,5.19,1.34,12.88
1,-0.05,0.07,0.98,9.7,2.26,21.73
1,0.02,0.08,1.02,7.75,3.3,18.8
1,0,0.1,0.98,4.76,2.99,14.16
1,0.02,0.11,0.98,7.08,-2.87,14.1
1,-0.02,0.07,1,3.11,-1.04,9.95
1,-0.04,0.07,0.99,0.37,-1.4,-2.14
1,-0.03,0.07,0.99,0.37,1.89,0.79
1,-0.04,0.06,0.99,1.22,0.18,6.96
1,-0.03,0.06,0.99,3.66,-3.17,0.31
1,-0.04,0.05,1,1.53,-3.66,2.08
1,-0.02,0.05,0.98,-3.85,-5.62,-7.63
1,-0.01,0.09,0.99,-5.43,-3.66,0.73
1,-0.01,0.09,0.99,-1.59,-4.88,0.49
1,-0.01,0.11,0.98,-7.51,-7.87,-5.25
1,-0.03,0.11,0.99,-13.31,-1.89,-5.43
1,0,0.14,1,-14.1,0.98,-2.44
1,-0.04,0.11,0.96,-13.06,-3.23,5.31
1,0,0.13,0.99,-12.76,15.26,-1.34
1,-0.03,0.13,1.01,-11.9,8.24,6.47
1,0,0.17,0.97,7.51,-0.06,1.46
1,0,0.15,0.99,1.1,5.86,0.61
1,-0.03,0.18,0.97,15.87,-0.98,1.65
1,0,0.17,0.95,2.2,0.55,-1.65
1,-0.03,0.18,1.04,14.65,5.74,3.54
1,0,0.16,0.94,3.91,5.62,1.22
1,0,0.18,1.01,2.44,-0.37,2.87
1,-0.02,0.17,0.97,3.11,-13.73,3.78
1,-0.03,0.16,1.01,6.77,-14.59,1.28
1,-0.04,0.15,0.98,6.04,-16.36,-0.67
1,-0.05,0.13,1,10.8,-5.31,0.79
1,-0.07,0.13,0.97,11.9,15.44,0.06
1,-0.04,0.08,0.97,12.39,21.12,-1.16
1,-0.01,0.08,0.96,8.67,10.99,-0.49
1,-0.02,0.05,0.96,9.09,11.96,3.6
1,0,0.04,0.97,7.93,9.22,2.32
1,0.01,0.04,0.98,6.16,7.51,1.34
1,0.03,0.03,1,4.03,3.78,-0.37
1,0.03,0.03,0.98,4.58,-3.48,-0.18
1,0.01,0.02,1,1.46,-4.64,-1.95
1,0,0.03,0.99,-0.61,-2.87,-0.73
1,-0.03,0.03,1,4.09,-0.37,-1.1
1,-0.03,0.03,1,1.65,5.62,-0.12
1,-0.02,0.02,0.99,1.95,0.67,1.16
1,0,0.03,0.99,2.87,8.18,0.98
1,0.01,0.03,0.98,2.99,8.12,1.16
1,0.02,0.03,0.99,4.03,5.25,1.95
1,0.02,0.05,1,1.77,2.44,2.69
1,0.02,0.05,0.99,1.46,0.18,-0.49
1,0.03,0.04,0.99,1.46,2.44,-2.26
1,0.04,0.03,0.98,0.98,-0.18,-1.1
1,0.03,0.04,0.99,1.16,-4.27,0.06
1,0.02,0.04,0.98,-0.31,-9.28,-0.43
1,0.02,0.05,1,-0.24,-3.54,0.43
1,0.01,0.04,1,2.87,3.11,-0.98
1,0.03,0.04,0.98,3.85,5.92,-0.12
1,0.03,0.04,0.99,1.65,3.78,-0.31
1,0.03,0.03,0.99,2.99,2.38,-0.06
1,0.04,0.04,0.97,1.89,-0.31,0.24
1,0.03,0.03,0.99,2.44,1.04,0.67
1,0.04,0.04,0.99,1.77,-0.73,0.06
1,0.03,0.04,0.98,1.65,1.83,-0.18
1,0.03,0.04,0.98,2.26,2.87,0.31
1,0.04,0.03,0.98,0.18,-2.44,0.43
1,0.03,0.04,0.97,-0.55,-6.29,1.28
1,0.03,0.02,0.96,1.59,-9.09,3.17
1,0.01,0.03,0.98,3.54,-10.74,3.17
1,0.01,0.04,0.98,4.58,2.32,0.31
1,0,0.05,0.98,3.48,0.18,-2.99
1,0,0.05,1,-3.85,2.08,0.18
1,-0.01,0.05,1.01,4.33,4.09,0.79
1,0.01,0.02,1,-0.55,2.81,-1.53
1,0.02,0.05,0.99,0.55,6.65,-0.98
1,0.01,0.06,0.98,-2.56,4.46,-0.18
1,0.02,0.06,0.96,-1.95,6.04,-0.43
1,0,0.06,1,0.18,9.7,1.53
1,0.04,0.05,0.96,0.67,18.86,-2.26
1,0.06,0.03,0.99,-0.43,18.13,-1.46
1,0.08,0.06,1,-3.97,-6.9,2.81
1,0.13,0.03,1.08,12.08,1.46,4.52
1,0.06,0.06,0.99,16.11,-12.33,4.33
1,0.04,0.03,1,18.25,-3.85,1.1
1,0.04,0.02,0.99,6.23,-3.54,-2.93
1,0.03,0.02,0.99,6.96,-4.03,-0.49
1,0.03,0.01,0.99,5.62,-4.52,0.49
1,0,-0.01,1.02,3.6,-6.53,1.95
1,0,0.01,1,-6.96,-20.32,-3.85
1,-0.02,0.01,1,1.83,-0.37,4.39
1,-0.02,0.02,0.99,2.01,-0.12,4.09
1,-0.05,0.01,1,2.69,-0.31,3.36
1,-0.03,0.01,0.99,2.81,-0.06,1.04
1,-0.02,0.01,0.98,7.63,-0.61,-1.1
1,-0.04,0.03,0.98,8,-2.87,1.77
1,-0.03,0,1,7.87,-0.73,1.83
1,-0.03,-0.01,0.99,4.27,-0.61,1.89
1,-0.04,-0.01,0.98,-1.1,0.18,0.18
1,-0.03,0.01,0.99,0.31,15.5,0.37
1,-0.04,-0.01,0.99,3.36,0.49,-0.12
1,-0.03,-0.02,1,2.2,0.31,-0.24
1,-0.03,-0.01,0.99,0.61,0.49,0.31
1,-0.03,-0.01,0.99,0.18,0.31,0.37
1,-0.03,0,0.99,1.4,0.06,0.06
1,-0.04,0,0.99,2.14,0.18,0.18
1,-0.03,0,0.99,1.95,0.24,0.31
1,-0.04,0,0.99,2.08,0.18,0.24
1,-0.04,-0.01,0.99,1.89,0.55,0.24
1,-0.03,0,0.99,1.34,0.31,0.18
1,-0.03,-0.01,0.99,1.59,0.18,0.12
1,-0.03,0,0.99,2.2,0.06,0.43
1,-0.04,-0.01,0.99,2.75,0.43,0
1,-0.04,-0.01,0.99,2.81,0.18,0.12
1,-0.04,-0.01,0.99,0.73,0.49,0.12
1,-0.03,0,0.99,1.34,0.31,0.24
1,-0.04,-0.01,0.99,2.2,0.49,0.18
1,-0.03,-0.01,0.99,1.46,0.24,0.06
1,-0.04,-0.01,0.99,1.34,0.24,0.24
1,-0.04,-0.01,0.99,2.14,0.18,0.37
1,-0.04,-0.01,0.99,2.08,0.49,0.43
1,-0.04,-0.01,0.99,1.46,0.49,0.24
1,-0.04,-0.01,0.99,1.22,0.61,0.37
1,-0.03,0,0.99,1.53,0.37,0.18
1,-0.04,-0.01,0.99,2.44,0.43,0.31
1,-0.04,0,0.99,1.22,0.37,0.43
1,-0.04,0,0.99,2.75,0.31,0.31
1,-0.04,-0.01,0.99,2.81,-0.12,0.31
1,-0.04,-0.01,0.99,2.69,0.12,0.24
1,-0.04,-0.01,0.99,1.89,-0.06,0.79
1,-0.04,-0.01,0.99,2.01,0.24,0.31
1,-0.04,-0.01,0.99,2.01,0.61,-0.06
1,-0.04,-0.02,0.99,1.83,0.61,-0.06
1,-0.03,-0.01,0.99,1.83,0.18,0.49
1,-0.04,-0.01,0.99,2.08,0.31,0.49
1,-0.04,-0.01,0.99,1.89,0.43,0.49
1,-0.04,-0.01,0.99,3.17,0.43,0.43
1,-0.04,-0.02,0.99,2.75,0.06,0.24
1,-0.04,-0.01,0.99,1.77,0.49,0.37
1,-0.04,-0.02,0.99,1.83,0.67,0.12
1,-0.04,-0.01,0.99,1.59,0.18,0.18
1,-0.04,-0.02,0.99,1.89,0.24,0.49
1,-0.04,-0.02,0.99,2.38,0.18,0.49
1,-0.04,-0.02,0.99,2.26,0.37,0.12
1,-0.04,-0.02,0.99,1.83,0.37,0.31
1,-0.04,-0.02,0.99,1.89,0.49,0.24
1,-0.04,-0.02,0.99,2.08,0.18,0.31
1,-0.04,-0.02,0.99,1.77,0.12,0.49
1,-0.04,-0.02,0.99,1.59,0.49,0.18
1,-0.04,-0.01,0.99,2.44,0.55,-0.06
1,-0.04,-0.02,0.99,3.23,0.31,0.18
1,-0.04,-0.03,0.99,2.2,0.31,0.31
1,-0.04,-0.02,0.99,1.16,0.43,0.31
1,-0.04,-0.02,0.99,0.85,0.49,0.31
1,-0.04,-0.02,0.99,2.08,0.37,0.18
1,-0.04,-0.02,0.99,1.71,0.24,0.37
1,-0.04,-0.02,0.99,2.75,0.24,0.24
1,-0.04,-0.03,0.99,2.44,0.49,0.31
1,-0.04,-0.02,0.99,0.79,0.73,0.12
1,-0.04,-0.01,0.99,1.1,0.55,0.37
1,-0.04,-0.02,0.99,2.26,0.73,0.55
1,-0.04,-0.02,0.99,2.32,0.55,0.73
1,-0.04,-0.02,0.99,3.17,0.24,-0.18
1,-0.04,-0.02,0.99,4.52,-0.12,0.18
1,-0.05,-0.04,0.99,3.11,0,0.37
1,-0.05,-0.03,0.99,-0.61,0.67,0.18
1,-0.04,-0.02,0.99,-1.16,0.73,-0.12
1,-0.04,-0.02,0.98,0.06,0.43,0.12
1,-0.03,-0.02,1,0.31,3.85,-1.95
1,-0.03,-0.01,0.99,1.95,-2.26,2.93
1,-0.05,-0.02,0.99,3.17,1.4,1.59
1,-0.04,-0.02,0.99,1.65,4.03,-0.79
1,-0.03,-0.02,0.99,1.77,0.31,0.06
1,-0.03,-0.02,0.99,2.44,0.85,0.92
1,-0.03,-0.02,0.99,2.08,0.92,0.06
1,-0.04,-0.03,0.98,2.26,2.32,-0.18
1,-0.02,-0.03,1.01,2.81,3.3,-0.37
1,-0.03,-0.02,0.99,2.2,0.49,0.31
1,-0.03,-0.02,0.99,1.22,0.18,1.71
1,-0.03,-0.02,0.99,1.46,2.93,0
1,-0.02,-0.02,0.99,1.95,-0.12,0.37
1,-0.02,-0.03,0.99,1.46,0.98,0.55
1,-0.02,-0.02,1,1.46,-0.61,-0.12
1,-0.02,-0.03,0.99,2.93,1.04,-0.18
1,-0.02,-0.03,0.99,1.95,0,-0.37
1,-0.03,-0.02,0.99,1.16,-1.4,0.43
1,-0.03,-0.02,0.99,1.34,-1.16,0.61
1,-0.03,-0.02,0.99,1.46,-0.73,0.55
1,-0.03,-0.02,0.98,2.14,1.4,0.06
1,-0.03,-0.02,0.99,2.26,0,0.12
1,-0.03,-0.02,0.99,1.95,-0.12,0.43
1,-0.03,-0.02,0.99,1.16,0.24,0.31
1,-0.03,-0.02,0.99,0.98,0.55,0.24
1,-0.03,-0.02,0.99,1.22,0.55,0.37
1,-0.03,-0.02,0.99,1.71,0.31,0.24
1,-0.03,-0.02,0.99,1.89,0.24,0.24
1,-0.03,-0.02,0.99,1.89,0.55,0.24
1,-0.03,-0.02,0.99,2.14,1.28,-0.12
1,-0.03,-0.02,0.99,1.59,1.1,0.24
1,-0.03,-0.02,0.99,1.4,0.43,0.24
1,-0.03,-0.02,0.99,2.2,-0.24,0.31
1,-0.03,-0.03,0.99,1.53,-0.24,0.55
1,-0.03,-0.02,0.99,1.53,-0.31,0.18
1,-0.04,-0.03,0.98,1.65,-5.55,0.31
1,-0.03,-0.02,1,1.34,1.65,0.43
1,-0.04,-0.02,0.99,1.22,0,0.37
1,-0.04,-0.02,0.99,1.59,0.24,0.18
1,-0.04,-0.02,0.99,1.65,0.43,0.12
1,-0.04,-0.02,0.99,0.98,0.37,0.24
1,-0.04,-0.02,0.99,1.04,0.49,0.37
1,-0.04,-0.02,0.99,1.1,0.37,0.06
1,-0.04,-0.02,0.99,1.59,0.37,0.43
1,-0.04,-0.02,0.99,1.89,0.31,0.18
1,-0.04,-0.02,0.99,1.95,0.18,0.18
1,-0.04,-0.02,0.99,1.83,0.43,0.37
1,-0.04,-0.02,0.99,1.53,0.49,0.24
1,-0.04,-0.02,0.99,1.83,0.37,0.24
1,-0.04,-0.02,0.99,2.38,0.37,0.18
1,-0.04,-0.02,0.99,2.5,0.31,0.24
1,-0.04,-0.02,0.99,1.95,0.31,0.31
1,-0.04,-0.02,0.99,1.53,0.31,0.24
1,-0.04,-0.02,0.99,0.79,0.31,0
1,-0.04,-0.02,0.99,1.22,0.37,0.06
1,-0.04,-0.01,0.99,1.71,0.61,0.18
1,-0.04,-0.02,0.99,2.75,0.24,0.24
1,-0.04,-0.02,0.99,1.77,0.18,0.24
1,-0.04,-0.02,0.99,2.14,0.43,0.24
1,-0.04,-0.02,0.99,2.01,0.49,0.37
1,-0.04,-0.02,0.99,0.61,0.73,0.24
1,-0.04,-0.02,0.99,0.67,0.43,0.06
1,-0.04,-0.02,0.99,1.77,0.61,0.37
1,-0.04,-0.02,0.99,2.01,0.49,0.24
1,-0.04,-0.02,0.99,2.2,0.49,0.06
1,-0.04,-0.02,0.99,2.01,0.43,0.12
1,-0.04,-0.02,0.99,1.89,0.43,0.18
1,-0.04,-0.02,0.99,1.59,0.31,-0.06
1,-0.04,-0.02,0.99,1.53,0.49,0.18
1,-0.04,-0.02,0.99,1.22,0.18,-0.12
1,-0.04,-0.02,0.99,1.59,0.06,-0.37
1,-0.04,-0.02,0.99,1.53,0.31,-0.18
1,-0.04,-0.01,0.99,1.46,0.31,-0.37
1,-0.04,-0.01,0.99,2.01,0.49,0.12
1,-0.05,-0.02,0.99,1.83,0.43,0.37
1,-0.04,-0.02,0.99,1.34,0.31,0.55
1,-0.05,-0.02,0.99,1.46,0.37,0.12
1,-0.04,-0.02,0.99,1.4,0.31,0.12
1,-0.04,-0.01,0.99,1.4,0.55,-0.06
1,-0.04,-0.01,0.99,2.26,0.24,0
1,-0.04,-0.02,0.99,2.44,0.43,0.43
1,-0.04,-0.02,0.99,2.2,0.31,0.31
1,-0.05,-0.02,0.99,1.1,0.55,0.31
1,-0.04,-0.02,0.99,0.92,0.49,0.24
1,-0.04,-0.01,0.99,1.46,0.55,0.18
1,-0.04,-0.02,0.99,2.01,0.61,0.24
1,-0.04,-0.02,0.99,1.83,0.24,0.31
1,-0.04,-0.02,0.99,2.14,0.43,0.37
1,-0.04,-0.02,0.99,2.08,0.31,0.37
1,-0.05,-0.02,0.99,1.65,0.37,0.31
1,-0.04,-0.02,0.99,1.89,0.43,0.18
1,-0.04,-0.02,0.99,1.4,0.37,0.31
1,-0.04,-0.02,0.99,1.4,0.43,0.24
1,-0.04,-0.02,0.99,1.28,0.43,0.18
1,-0.04,-0.02,0.99,1.89,0.37,0.12
1,-0.04,-0.02,0.99,1.46,0.31,0.31
1,-0.04,-0.02,0.99,1.59,0.31,0.18
1,-0.04,-0.02,0.99,1.83,0.49,0.18
1,-0.04,-0.02,0.99,1.46,0.43,0
1,-0.04,-0.02,0.99,1.59,0.24,0.12
1,-0.04,-0.02,0.99,1.89,0.43,0.06
1,-0.04,-0.02,0.99,1.89,0.67,0.24
1,-0.04,-0.02,0.99,1.46,0.67,0.37
1,-0.04,-0.02,0.99,2.14,0.49,0.31
1,-0.04,-0.02,0.99,1.59,0.43,0.18
1,-0.04,-0.02,0.99,1.77,0.43,0.31
1,-0.04,-0.02,0.99,1.83,0.55,0.31
1,-0.04,-0.02,0.99,1.1,0.61,0.12
1,-0.04,-0.02,0.99,1.34,0.55,0.31
1,-0.04,-0.01,0.99,1.83,0.24,0.12
1,-0.04,-0.02,0.99,2.01,0.49,0.24
1,-0.04,-0.02,0.99,1.59,0.61,0.24
1,-0.04,-0.01,0.99,1.59,0.49,0.18
1,-0.04,-0.01,0.99,1.65,0.37,0.06
1,-0.04,-0.02,0.99,1.89,0.49,0.31
1,-0.04,-0.02,0.99,1.95,0.43,0.31
1,-0.04,-0.02,0.99,1.77,0.37,0.12
1,-0.04,-0.02,0.99,1.28,0.37,0.24
1,-0.04,-0.02,0.99,1.89,0.55,0.31
1,-0.04,-0.02,0.99,1.65,0.37,0.18
1,-0.04,-0.02,0.99,1.83,0.43,0.37
1,-0.04,-0.02,0.99,1.34,0.61,0.24
1,-0.04,-0.02,0.99,2.32,0.37,0.24
1,-0.04,-0.02,0.99,1.95,0.43,0.37
1,-0.04,-0.02,0.99,1.95,0.49,0.24
1,-0.05,-0.02,0.99,1.28,0.61,0.24
1,-0.04,-0.01,0.99,1.53,0.67,0.31
1,-0.04,-0.02,0.99,1.77,0.43,0.24
1,-0.04,-0.01,0.99,2.14,0.24,0.12
1,-0.04,-0.02,0.99,2.01,0.37,0.31
1,-0.04,-0.02,0.99,1.46,0.24,0.37
1,-0.04,-0.01,0.99,0.67,0.37,0.37
1,-0.04,-0.01,0.99,0.79,0.73,0.37
1,-0.04,-0.01,0.99,1.34,0.55,0.37
1,-0.04,-0.01,0.99,2.26,0.61,0.31
1,-0.04,-0.02,0.99,2.44,0.85,0.67
1,-0.04,-0.01,0.99,2.2,0.49,0.43
1,-0.05,-0.02,0.99,3.05,0.92,1.28
1,-0.04,-0.02,0.99,1.77,0.73,0.67
1,-0.05,-0.02,0.99,1.71,0.55,0.12
1,-0.04,-0.02,0.99,1.46,0.24,0.24
1,-0.05,-0.02,0.99,0.73,0.67,0.24
1,-0.04,-0.02,0.99,1.34,0.98,0.06
1,-0.04,-0.02,0.99,0.79,0.55,0
1,-0.04,-0.01,0.99,0.92,0.67,0
1,-0.04,-0.01,0.99,2.75,0.55,-0.06
1,-0.05,-0.02,0.98,1.83,1.4,-0.73
1,-0.04,-0.02,0.99,1.4,2.56,-0.43
1,-0.03,-0.02,0.99,0.79,0.43,-1.77
1,-0.04,-0.01,1,1.4,-2.99,-1.59
1,-0.04,-0.01,0.99,-0.18,0.55,-0.61
1,-0.05,-0.03,0.99,-2.87,1.16,-0.98
1,-0.04,0,0.99,-0.85,0.55,-0.61
1,0.05,0.06,1.02,-1.77,26.12,-13.61
1,0.05,0.06,0.97,2.99,7.93,-0.37
1,0.03,-0.02,1.02,-4.88,-7.08,-2.93
1,-0.01,-0.04,0.91,1.28,-2.01,-2.93
1,0.03,0,0.99,-2.75,-4.76,-5.55
1,0.05,0.04,1,5.19,6.71,11.29
1,-0.04,-0.02,0.98,3.23,3.97,8.06
1,0.02,-0.01,1,0.37,5.8,-5.31
1,0.01,0,0.99,-0.73,6.71,-7.75
1,0.03,0.02,0.99,-0.12,3.42,-6.1
1,0.05,0.01,0.98,-0.18,5.92,-1.34
1,0.03,0.01,0.98,0.79,4.94,-3.78
1,0.07,0.01,1,5.62,12.33,-4.39
1,0.08,0.05,0.96,23.86,6.96,-12.45
1,0.03,0.02,0.99,6.23,-6.23,-2.69
1,-0.03,0,1,-0.55,-10.07,-14.28
1,-0.01,-0.01,1,0.06,-6.16,-20.69
1,-0.01,0.01,0.99,-0.06,-5.68,-16.85
1,0.01,0,0.99,3.48,-6.29,-19.65
1,0,0,0.99,0.43,0.98,-17.94
1,0,0.01,0.99,0.79,2.32,-12.7
1,-0.01,0.02,0.99,1.28,3.78,-0.85
1,0.01,0,0.99,1.53,3.54,1.34
1,0,0,0.99,2.2,-0.12,7.57
1,0.02,0.01,0.99,2.01,-2.44,7.2
1,0.01,0,0.99,2.56,0.37,10.99
1,0.01,0,0.99,3.42,1.22,15.32
1,0,0,0.99,10.38,0.73,13
1,0.01,-0.01,1,9.83,-1.89,11.66
1,0.01,-0.02,0.99,10.8,-0.85,7.93
1,0.01,-0.03,0.99,12.45,0.49,8.54
1,0,-0.04,0.99,20.45,2.69,16.48
1,0.02,-0.07,0.98,19.23,6.65,16.97
1,0.07,-0.09,0.98,16.05,7.69,8
1,0.04,-0.11,0.99,-5.68,-4.27,-1.65
1,0.01,-0.13,0.98,-8.12,-20.87,-27.22
1,0.02,-0.08,0.96,-42.3,-4.15,-25.09
1,0.06,0.03,1.01,1.28,10.25,1.83
1,0,0.01,1,-4.03,2.69,-4.52
1,0,0,0.99,0.24,0.67,-5.07
1,-0.01,0,0.99,1.83,-0.49,-16.91
1,0,0,0.99,1.83,0.61,-1.59
1,0,0,0.99,1.46,0.24,-6.59
1,0,0,0.99,2.08,0.43,-2.14
1,0,0,0.99,1.65,0.43,-2.26
1,-0.01,0,0.99,1.71,0.49,-2.01
1,0,0,0.99,1.53,0.43,-1.28
1,0,0,0.99,0.92,0.49,-1.4
1,0,0,0.99,1.83,0.55,-1.28
1,-0.01,0,0.99,1.77,0.67,-0.85
1,-0.01,0,0.99,1.4,0.37,-1.1
1,0,0,0.99,1.59,0.49,-0.98
1,0,0,0.99,1.77,0.49,-1.04
1,-0.01,0,0.99,1.77,0.55,-1.04
1,0,0,0.99,1.89,0.61,-0.73
1,0,0,0.99,1.77,0.49,-0.85
1,0,0,0.99,1.46,0.37,-0.55
1,-0.01,0,0.99,1.59,0.49,-0.67
1,-0.01,0,0.99,1.77,0.49,-0.79
1,-0.01,0,0.99,1.77,0.37,-0.49
1,-0.01,0,0.99,1.71,0.49,-0.55
1,-0.01,0,0.99,2.01,0.49,-0.61
1,-0.01,0,0.99,1.77,0.43,-0.49
1,-0.01,0,0.99,1.83,0.49,-0.37
1,-0.01,0,0.99,1.46,0.43,-0.55
1,-0.01,0,0.99,1.65,0.55,-0.49
1,-0.01,0,0.99,1.71,0.18,-0.31
1,-0.01,0,0.99,1.77,0.43,-0.31
1,0,0,0.99,1.83,0.55,-0.18
1,-0.01,0,0.99,1.59,0.49,-0.37
1,-0.01,0,0.99,1.53,0.49,-0.37
1,-0.01,0,0.99,1.53,0.67,-0.55
1,0,0,0.99,1.65,0.67,-0.18
1,-0.01,0,0.99,1.77,0.43,-0.24
1,-0.01,0,0.99,1.59,0.49,-0.24
1,0,0,0.99,1.46,0.55,-0.24
1,-0.01,0,0.99,2.01,0.43,-0.31
1,-0.01,0,0.99,1.65,0.49,-0.31
1,-0.01,0,0.99,1.59,0.55,-0.31
1,-0.01,0,0.99,1.77,0.31,-0.43
1,-0.01,0,0.99,1.95,0.49,-0.37
1,-0.01,0,0.99,1.53,0.61,-0.06
1,-0.01,0,0.99,1.89,0.61,-0.24
1,-0.01,0,0.99,1.83,0.55,-0.06
1,-0.01,0,0.99,1.83,0.49,-0.06
1,-0.01,0,0.99,1.71,0.43,-0.18
1,-0.01,0,0.99,2.01,0.49,-0.24
1,-0.01,0,0.99,1.83,0.43,-0.24
1,0,0,0.99,1.89,0.49,-0.31
1,0,0,0.99,1.53,0.43,-0.18
1,-0.01,0,0.99,1.71,0.61,0
1,-0.01,0,0.99,1.53,0.55,0.06
1,-0.01,0,0.99,1.83,0.55,0
1,-0.01,0,0.99,1.59,0.67,-0.06
1,-0.01,0,0.99,1.4,0.61,-0.06
1,-0.01,0,0.99,1.77,0.55,0
1,-0.01,0,0.99,1.71,0.67,-0.31
1,-0.01,0,0.99,1.83,0.49,-0.37
1,-0.01,0,0.99,1.71,0.24,-0.24
1,-0.01,0,0.99,1.89,0.73,0.06
1,-0.01,0,0.99,1.46,0.73,0.06
1,-0.01,0,0.99,1.71,0.55,0
1,-0.01,0,0.99,1.65,0.55,-0.18
1,-0.01,0,0.99,1.71,0.43,0
1,-0.01,0,0.99,1.59,0.37,-0.12
1,-0.01,0,0.99,1.65,0.37,-0.12
1,-0.01,0,0.99,1.65,0.61,-0.12
1,-0.01,0,0.99,1.71,0.55,0
1,-0.01,0,0.99,1.65,0.43,-0.06
1,-0.01,0,0.99,1.46,0.43,-0.06
1,-0.01,0,0.99,1.89,0.37,-0.06
1,-0.01,0,0.99,1.71,0.55,0
1,-0.01,0,0.99,1.71,0.31,0.06
1,-0.01,0,0.99,1.77,0.61,0
1,-0.01,0,0.99,1.89,0.37,0.12
1,-0.01,0,0.99,1.71,0.43,-0.06
1,-0.01,0,0.99,1.46,0.55,0
1,-0.01,0,0.99,1.71,0.24,0
1,-0.01,0,0.99,1.89,0.31,-0.12
1,-0.01,0,0.99,2.08,0.49,-0.06
1,-0.01,0,0.99,1.59,0.49,0
1,-0.01,0,0.99,1.53,0.43,0.06
1,-0.01,0,0.99,1.53,0.43,0
1,0,0.01,0.99,1.22,0,-3.85
1,-0.01,0,0.99,2.01,0.31,-0.06
1,-0.01,0,0.99,1.4,0.49,0
1,-0.01,0,0.99,1.83,0.49,-0.06
1,-0.01,0,0.99,1.53,0.55,0.12
1,0,0,0.99,1.65,0.12,0.06
1,-0.01,0,0.99,1.59,0.43,0
1,-0.01,0,0.99,1.59,0.31,0.12
1,-0.01,0,0.99,1.89,0.43,0.06
1,-0.01,0,0.99,1.53,0.49,0.06
1,-0.01,0,0.99,1.71,0.49,0.06
1,-0.01,0,0.99,1.53,0.31,0
1,-0.01,0,0.99,1.53,0.37,0.06
1,0,0,0.99,1.83,0.55,0.06
1,-0.01,0,0.99,1.71,0.43,0.12
1,-0.01,0,0.99,1.77,0.55,0
1,-0.01,0,0.99,1.77,0.49,0
1,-0.01,0,0.99,1.59,0.37,0
1,-0.01,0,0.99,1.59,0.43,0.18
1,0,0,0.99,1.46,0.43,0.12
1,-0.01,0,0.99,1.77,0.43,-0.06
1,-0.01,0,0.99,1.77,0.55,0.06
1,-0.01,0,0.99,1.95,0.49,0
1,-0.01,0,0.99,1.77,0.73,0.06
1,-0.01,0,0.99,1.65,0.55,0.18
1,-0.01,0,0.99,1.59,0.49,0.18
1,0,0,0.99,1.71,0.37,0.12
1,-0.01,0,0.99,1.89,0.18,0.06
1,-0.01,0,0.99,1.71,0.37,-0.06
1,0,0,0.99,1.4,0.55,0
1,-0.01,0,0.99,1.89,0.31,0.12
1,0,0,0.99,1.4,0.49,0.24
1,0,0,0.99,1.28,0.43,-0.06
1,-0.01,0,0.99,1.83,0.31,0.06
1,-0.01,0,0.99,1.53,0.43,-0.06
1,-0.01,0,0.99,1.59,0.37,0.12
1,-0.01,0,0.99,1.83,0.43,0.12
1,0,0,0.99,1.77,0.43,0.18
1,0,0,0.99,1.53,0.31,0.06
1,-0.01,0,0.99,1.89,0.43,0.12
1,0,0,0.99,1.46,0.37,0.24
1,-0.01,0,0.99,1.71,0.49,0.18
1,0,0,0.99,1.65,0.24,0.06
1,-0.01,0,0.99,1.65,0.37,0
1,-0.01,0,0.99,1.71,0.61,0.06
1,0,0,0.99,1.59,0.31,0.12
1,0,0,0.99,1.65,0.31,0.06
1,-0.01,0,0.99,1.59,0.43,0.06
1,-0.01,0,0.99,1.71,0.43,0
1,-0.01,0,0.99,1.59,0.43,0.06
1,0,0,0.99,1.83,0.61,0.06
1,0,0,0.99,1.34,0.37,0.12
1,-0.01,0,0.99,1.65,0.43,0
1,-0.01,0,0.99,1.77,0.24,0.18
1,-0.01,0,0.99,1.59,0.55,0
1,-0.01,0,0.99,1.71,0.43,-0.06
1,0,0,0.99,1.59,0.55,0.12
1,-0.01,0,0.99,1.77,0.31,0.06
1,-0.01,0,0.99,1.83,0.43,0.06
1,-0.01,0,0.99,1.89,0.61,0.18
1,-0.01,0,0.99,1.65,0.49,0.06
1,-0.01,0,0.99,1.83,0.43,0.12
1,-0.01,0,0.99,1.59,0.61,0.12
1,-0.01,0,0.99,1.83,0.18,0
1,0,0,0.99,1.89,0.31,0.06
1,-0.01,0,0.99,1.83,0.31,0
1,-0.01,0,0.99,1.95,0.49,0.18
1,0,0,0.99,1.77,0.31,0.18
1,-0.01,0,0.99,1.71,0.61,0.12
1,-0.01,0,0.99,1.77,0.43,0.12
1,-0.01,0,0.99,1.53,0.43,0.06
1,0,0,0.99,1.59,0.49,0.06
1,0,0,0.99,1.89,0.43,0.06
1,-0.01,0,0.99,2.01,0.37,0.06
1,-0.01,0,0.99,1.65,0.43,0.12
1,-0.01,0,0.99,1.59,0.55,0
1,-0.01,0,0.99,1.83,0.43,0.24
1,-0.01,0,0.99,1.46,0.49,0.18
1,-0.01,0,0.99,1.65,0.49,0.12
1,0,0,0.99,1.46,0.37,0.18
1,-0.01,0,0.99,2.08,0.55,0.12
1,-0.01,0,0.99,1.59,0.67,0.12
1,0,0,0.99,1.95,0.49,0
1,0,0,0.99,1.77,0.61,0.06
1,0,0,0.99,1.53,0.37,0.18
1,-0.01,0,0.99,1.46,0.55,0.12
1,0,0.01,0.93,4.27,-1.28,0.31
1,-0.06,0.34,1,-0.37,2.08,0.92
1,-0.07,0.1,0.98,-2.81,1.89,21.73
1,-0.03,0.04,0.96,-0.73,3.05,17.58
1,0.04,0.03,1.01,-9.22,1.71,18.74
1,-0.13,0.14,0.99,2.5,8.18,26.25
1,-0.02,-0.08,0.96,4.27,2.56,39.86
1,-0.05,0.02,1,12.02,-5.37,22.64
1,-0.02,0.04,1,-5.13,-0.85,20.14
1,0.02,-0.03,0.96,-4.21,2.56,27.47
1,0.02,-0.04,0.97,-5.62,-4.15,19.71
1,-0.11,0,0.96,6.96,-43.88,21.67
1,-0.07,-0.04,0.97,-1.77,-33.75,19.41
1,-0.1,0.02,0.98,0.79,-17.09,11.66
1,-0.11,0.01,0.99,-9.22,-26.86,9.58
1,-0.14,0.03,0.98,-6.65,-24.78,6.41
1,-0.14,0.03,0.96,-2.93,-22.22,7.45
1,-0.19,0.01,0.99,4.58,-13.24,4.58
1,-0.17,0.07,0.93,0.55,-12.15,-0.49
1,-0.22,0.03,1.01,-0.79,-1.4,3.97
1,-0.19,0.13,0.9,-0.98,6.29,-4.82
1,-0.25,0.09,1,-3.05,13.12,-1.77
1,-0.21,0.11,0.94,-1.4,10.19,-4.46
1,-0.21,0.06,0.97,-7.93,6.47,-7.32
1,-0.22,0.15,0.95,-2.56,10.74,-10.99
1,-0.18,0.05,1,0.43,6.96,-11.17
1,-0.15,0.09,0.94,-7.63,6.1,-12.82
1,-0.19,0.14,0.98,2.08,11.11,-7.39
1,-0.14,0.1,0.97,-3.42,5.92,3.17
1,-0.14,0.17,0.95,-5.13,4.33,-0.49
1,-0.12,0.06,0.98,-12.7,2.32,2.01
1,-0.12,0.17,0.94,2.93,7.69,2.01
1,-0.06,0.15,1,4.39,2.32,-0.24
1,-0.05,0.09,1,5.43,10.5,-7.2
1,-0.02,0.12,0.97,7.32,6.59,14.1
1,-0.09,0.14,0.99,1.04,5.92,-3.36
1,-0.07,0.15,0.98,6.96,-0.55,-8.36
1,-0.12,0.12,0.99,7.08,2.75,-16.11
1,-0.07,0.05,0.99,5.86,1.71,0.98
1,-0.12,0.15,0.97,3.48,4.15,-14.95
1,-0.08,0.14,0.97,4.82,7.57,-7.26
1,-0.09,0.16,0.97,6.96,13.37,-9.77
1,-0.04,0.11,0.98,8.06,7.75,-1.16
1,-0.05,0.11,0.98,-3.17,8.42,-5.07
1,-0.03,0.11,0.99,5,8.06,-1.1
1,0,0.09,0.97,6.41,9.58,-2.5
1,-0.02,0.1,0.99,8,7.75,-2.44
1,-0.02,0.07,0.96,4.09,7.75,-6.16
1,-0.04,0.03,1.01,8.36,2.32,-3.85
1,-0.02,0.09,0.97,5.43,6.23,-6.65
1,-0.02,0.1,1.02,2.62,13.67,-4.58
1,0.07,0.02,0.98,5.62,22.77,-5.31
1,0.03,0.07,1,-7.75,-6.35,-2.99
1,-0.05,0.07,1,-7.45,-13.31,-5.86
1,-0.04,0.1,0.98,1.34,-3.42,-0.06
1,0.01,0.03,0.98,5.8,10.13,7.14
1,-0.03,0.08,0.98,6.41,1.95,-0.61
1,0.03,0.05,1,3.05,1.28,5.19
1,-0.01,0.08,0.99,1.22,-4.03,1.83
1,0.02,0.08,0.99,0.61,-0.98,5.13
1,0.04,0.14,0.98,2.01,2.38,2.14
1,0.01,0.1,0.97,-0.18,0.18,2.69
1,0.04,0.15,0.98,-4.09,-2.08,1.46
1,0.02,0.13,0.98,-3.91,-2.32,-2.99
1,0.02,0.05,0.98,-4.7,-1.83,-8
1,-0.05,0.04,1,3.6,3.66,-5.68
1,-0.03,0,1.03,1.53,-7.45,-7.57
1,-0.03,0.05,1.01,3.11,-10.25,-4.94
1,-0.04,0.08,1.02,9.64,0.92,-6.65
1,-0.05,0.06,0.99,11.9,-0.55,-3.91
1,-0.06,0.02,1.01,7.63,0.49,-4.76
1,-0.05,-0.01,0.97,6.59,-2.08,-3.72
1,-0.12,0.09,0.99,6.29,-9.16,-2.14
1,-0.15,0.13,0.99,-4.88,-1.34,4.76
1,0,0.01,1.03,9.16,13.67,12.94
1,-0.08,0.13,0.99,5.68,4.09,18.01
1,-0.02,0.08,0.98,4.09,3.11,17.21
1,-0.06,0.01,1,-0.18,3.54,18.37
1,-0.04,-0.05,0.97,7.51,2.2,17.7
1,0,0,0.99,3.3,5.86,15.75
1,-0.01,0.02,0.95,9.28,7.87,10.56
1,0,0.04,0.98,-1.77,2.14,16.17
1,0.04,0.04,0.98,-6.23,1.04,19.59
1,-0.07,0,1.02,-2.2,16.91,10.8
1,0.05,0,1,1.28,-0.85,9.22
1,0.05,0.03,0.99,-1.1,-4.33,3.54
1,-0.01,0.04,0.97,-2.08,-8.3,-2.69
1,0.01,0.04,0.98,-2.01,-7.81,0.12
1,-0.04,0.07,0.98,-2.32,-4.15,0.67
1,-0.03,0.06,0.98,0.67,-1.59,5.68
1,-0.06,0.04,0.97,-0.49,-3.05,6.77
1,-0.03,0.06,0.99,5,-3.78,8.06
1,-0.02,0.07,0.99,2.62,-2.69,4.94
1,-0.03,0.07,1.01,2.38,-1.83,-2.44
1,-0.04,0.07,0.98,2.69,0.85,7.63
1,-0.06,0.12,1.06,-0.79,-3.72,1.34
1,-0.08,0.09,0.99,2.81,-8.42,-1.71
1,-0.02,0.06,0.99,4.03,1.83,2.69
1,-0.03,0.07,0.96,2.5,-2.62,-3.91
1,-0.1,0.04,0.96,5.98,-3.48,0.85
1,-0.1,0.03,0.95,3.11,-8.48,-0.85
1,-0.12,0.03,0.97,1.1,-7.14,2.75
1,-0.08,0.02,0.99,-1.1,-10.38,2.62
1,-0.1,0.05,0.99,4.03,-11.66,1.59
1,-0.11,0.04,0.98,0.79,-7.32,0.92
1,-0.13,0.05,0.97,3.3,-6.04,-12.02
1,-0.11,0.07,0.98,2.81,-5.92,7.39
1,-0.14,0.03,0.98,2.62,-4.7,-4.09
1,-0.14,0.07,0.97,3.3,-3.17,-0.67
1,-0.13,0.07,0.98,1.89,-1.04,2.56
1,-0.12,0.07,0.97,3.17,-2.62,4.09
1,-0.12,0.07,0.99,6.23,-5.31,0.43
1,-0.17,0.04,0.96,3.11,2.14,3.97
1,-0.14,0.05,0.98,4.64,2.5,2.56
1,-0.15,0.04,0.98,3.85,-0.31,2.56
1,-0.15,0.04,0.98,4.21,-0.18,1.71
1,-0.14,0.03,0.99,2.26,1.22,0.61
1,-0.15,0.03,0.98,3.23,0.49,-0.43
1,-0.15,0.03,0.98,1.28,2.62,-0.24
1,-0.14,0.03,0.98,1.77,0.85,-0.79
1,-0.14,0.03,0.98,2.87,0.55,-0.98
1,-0.14,0.03,0.98,4.03,0.31,0
1,-0.14,0.03,0.98,4.64,-0.24,0.18
1,-0.15,0.01,0.98,3.36,0.37,0.61
1,-0.15,0.02,0.98,2.56,-1.16,0.18
1,-0.15,0.02,0.98,-0.43,1.28,-0.18
1,-0.14,0.04,0.98,-0.73,-0.24,0
1,-0.14,0.03,0.98,1.28,1.04,1.4
1,-0.14,0.03,0.98,0.85,-0.37,1.83
1,-0.15,0.02,0.98,2.56,-0.06,1.04
1,-0.14,0.03,0.98,2.14,0.92,-0.31
1,-0.15,0.03,0.97,1.83,-0.73,-0.98
1,-0.15,0.03,0.98,2.75,0.73,-0.98
1,-0.15,0.02,0.98,2.14,0,0.18
1,-0.15,0.02,0.98,1.83,1.04,-0.61
1,-0.14,0.02,0.98,1.65,0.49,-0.24
1,-0.15,0.02,0.98,1.65,0.73,-0.49
1,-0.15,0.03,0.97,2.69,0.61,-0.37
1,-0.14,0.03,0.98,2.93,1.22,0.18
1,-0.14,0.03,0.98,0.31,1.22,1.77
1,-0.15,0.02,0.97,0.06,0.98,2.01
1,-0.14,0.03,0.99,-0.85,0.31,0.24
1,-0.15,0.03,0.98,0.73,-0.31,-0.31
1,-0.14,0.04,0.99,2.01,0.98,-0.12
1,-0.14,0.03,0.98,-0.31,-0.49,-1.34
1,-0.17,-0.01,0.95,-1.65,2.62,-1.83
1,-0.15,0.02,0.99,-0.37,1.04,0.31
1,-0.14,0.05,0.98,0.18,-0.12,0.49
1,-0.14,0.04,0.98,0.24,1.71,1.28
1,-0.14,0.04,0.99,0.55,0.85,0.31
1,-0.14,0.05,0.98,0,1.4,0.31
1,-0.14,0.04,0.99,2.5,-0.43,1.53
1,-0.14,0.05,0.98,3.42,-1.1,-1.77
1,-0.14,0.04,0.98,0.61,1.4,0.43
1,-0.14,0.04,0.98,0,1.22,0.67
1,-0.14,0.04,0.98,2.01,1.1,0.06
1,-0.14,0.04,0.99,1.34,-0.12,1.22
1,-0.15,0.04,0.98,1.65,0.49,1.16
1,-0.14,0.04,0.98,2.44,1.1,0.85
1,-0.12,0.09,0.94,1.83,-0.79,1.4
1,-0.15,0.04,0.98,-0.55,-1.34,0.49
1,-0.14,0.04,0.99,5.31,1.71,-0.55
1,-0.14,0.05,0.98,2.69,2.14,0.12
1,-0.15,0.03,0.98,2.62,0.37,1.1
1,-0.14,0.04,0.98,1.22,0.31,0.55
1,-0.15,0.03,0.98,4.09,1.4,-0.79
1,-0.14,0.04,0.99,2.69,-0.61,-0.49
1,-0.15,0.03,0.97,3.91,2.26,1.1
1,-0.14,0.03,0.98,0.79,2.01,2.38
1,-0.15,0.03,0.98,0.37,2.08,1.77
1,-0.13,0.04,0.99,1.46,2.87,0
1,-0.13,0.04,0.99,2.56,-0.79,0.37
1,-0.14,0.03,0.97,2.93,0.61,0.24
1,-0.14,0.03,0.98,1.34,0.49,0.43
1,-0.14,0.03,0.97,1.53,0.92,-0.06
1,-0.13,0.04,0.98,-0.49,0.98,0.18
1,-0.13,0.04,0.96,-1.95,6.1,-0.43
1,-0.12,0.04,0.99,-1.46,5.98,0
1,-0.12,0.04,0.98,2.38,4.03,-0.18
1,-0.12,0.04,0.98,-0.85,2.93,0.98
1,-0.12,0.04,0.98,2.56,1.22,-0.24
1,-0.11,0.04,0.98,-2.56,5.74,-0.18
1,-0.1,0.05,0.99,3.72,6.16,0.67
1,-0.1,0.06,0.99,1.1,3.42,0.73
1,-0.12,0,1.01,0.24,6.77,2.99
1,-0.07,0.03,1,-3.6,1.1,2.5
1,-0.04,-0.04,1,-0.85,6.16,18.37
1,-0.05,0.11,0.97,-0.67,11.35,25.76
1,-0.1,0.04,0.99,7.08,9.58,25.21
1,-0.13,0.08,0.98,2.08,4.82,7.32
1,-0.07,-0.02,0.98,3.36,0.61,-14.89
1,-0.14,0.2,0.98,9.95,4.27,-8.06
1,-0.11,-0.02,0.99,0.73,-1.83,-0.85
1,-0.13,0.06,0.97,7.51,-3.6,-6.53
1,-0.08,0,0.99,2.08,-3.36,-5.8
1,-0.06,0.09,0.98,-1.71,-0.67,-2.93
1,-0.05,0.07,1,-3.05,1.46,-3.11
1,-0.09,0.1,0.98,1.04,-6.35,-3.05
1,-0.09,0.03,0.99,2.2,-14.59,1.1
1,-0.09,0.07,0.98,2.26,0.55,-2.69
1,-0.09,0.06,0.99,1.77,0.31,5.13
1,-0.06,0.06,1,2.5,3.78,6.35
1,-0.11,0.07,0.98,0.67,-3.23,-0.85
1,-0.11,0.08,0.98,1.1,-1.89,2.62
1,-0.09,0.09,0.99,0,2.14,-2.75
1,-0.09,0.11,0.99,2.01,-0.49,5.37
1,-0.12,0.13,0.99,3.6,-1.89,8.36
1,-0.08,0.03,0.98,4.64,-0.24,4.7
1,-0.11,0.08,0.99,4.58,3.3,0
1,-0.11,0,0.99,5,8.18,-0.61
1,-0.1,0.04,0.99,7.14,7.63,-2.62
1,-0.09,-0.02,0.98,7.75,3.36,-0.31
1,-0.1,0.01,1,6.9,3.23,-2.56
1,-0.08,-0.01,0.98,4.33,2.08,-1.53
1,-0.09,-0.02,0.98,1.89,0.24,-6.29
1,-0.08,-0.03,0.98,2.87,-0.79,-6.9
1,-0.1,0,1,5.49,-1.95,-7.2
1,-0.11,0,0.98,5.86,-2.75,-6.16
1,-0.09,0,0.98,3.48,2.38,-0.43
1,-0.08,0,1,2.38,-0.43,-1.77
1,-0.09,0,0.99,0.55,0.85,-0.73
1,-0.09,0,0.99,-0.37,0.37,0
1,-0.09,0.01,0.99,-0.61,1.77,0.12
1,-0.09,0.01,0.99,1.4,0.92,-0.31
1,-0.09,0,0.99,1.04,2.44,-0.55
1,-0.08,0.01,0.99,0.49,0.67,-0.73
1,-0.08,0.02,0.99,3.17,-0.18,-0.37
1,-0.09,0,0.99,2.93,-0.06,-0.73
1,-0.08,0,0.99,1.83,0.85,-0.73
1,-0.08,0,0.99,1.22,0.61,0.06
1,-0.08,0,0.99,1.65,0,-1.04
1,-0.09,0.01,0.98,2.56,0.61,0.12
1,-0.08,0.01,0.99,1.71,0.49,-0.37
1,-0.09,0.01,0.99,1.77,0.37,0
1,-0.09,0,0.99,0.85,1.83,0.55
1,-0.08,0.01,0.99,1.22,1.34,-0.67
1,-0.09,0.01,0.98,2.01,-0.18,-0.79
1,-0.08,0.01,0.99,2.56,1.65,-0.79
1,-0.08,0,0.99,2.44,0.55,-0.98
1,-0.08,0,0.99,1.4,0.67,-0.67
1,-0.08,0,0.99,1.83,-0.06,-0.06
1,-0.08,0,0.99,2.87,1.59,-0.43
1,-0.08,0,0.99,2.08,1.4,-0.18
1,-0.08,0,0.99,1.53,1.28,0.31
1,-0.08,0,0.99,1.1,0.67,0.12
1,-0.08,0,0.98,2.2,-0.18,-0.18
1,-0.08,0,0.99,1.46,0.67,0.24
1,-0.08,0,0.99,1.83,1.1,0.24
1,-0.08,0,0.99,1.71,0.49,0.31
1,-0.08,0,0.99,1.83,-0.24,-0.12
1,-0.08,0,0.99,2.44,0.79,0.55
1,-0.08,0,0.99,0.73,0.06,0.12
1,-0.08,0.01,0.99,1.34,0.73,0.37
1,-0.08,0,0.99,1.65,0.73,0.61
1,-0.08,0.01,0.99,1.34,-0.18,0.12
1,-0.08,0,0.99,1.83,1.65,0.18
1,-0.08,0.01,0.99,0.67,0.31,0.31
1,-0.08,0.01,0.99,2.2,0.85,-0.06
1,-0.08,0,0.99,2.38,0.73,0.37
1,-0.08,0,0.99,2.56,0.79,0.06
1,-0.08,0,0.99,0.61,0.67,0.24
1,-0.08,0,0.99,0.24,-0.24,0.18
1,-0.08,0.01,0.99,2.38,1.1,0.43
1,-0.08,0,0.99,1.77,-0.55,0.37
1,-0.08,0,0.99,2.08,1.04,0.31
1,-0.08,0,0.99,0.79,0.18,0.37
1,-0.08,0.01,0.99,1.16,0.79,0
1,-0.07,0.01,0.99,1.71,0.18,0.61
1,-0.08,0,0.99,2.32,-0.37,0.55
1,-0.08,0,0.99,2.38,0.79,0.37
1,-0.08,0,0.99,0.43,0.37,0
1,-0.08,0.01,0.99,1.83,0.43,0.18
1,-0.08,0,0.99,2.5,0.06,0.49
1,-0.08,0,0.99,2.93,0.43,0.24
1,-0.08,0,0.99,1.59,0.37,0.18
1,-0.08,0,0.99,0.73,0.49,0.12
1,-0.08,0,0.99,2.32,0.61,0.49
1,-0.08,0,0.99,1.83,0,0.55
1,-0.08,0,0.99,2.08,1.1,0.43
1,-0.08,0,0.99,0.79,-0.12,0
1,-0.08,0,0.99,1.34,0.31,0.31
1,-0.08,0,0.99,2.38,0.18,0.31
1,-0.08,0,0.99,1.71,-0.12,0.37
1,-0.08,0,0.99,2.2,0.73,0.55
1,-0.08,0,0.99,1.46,0.55,0.24
1,-0.08,0.01,0.98,1.1,0.31,0.06
1,-0.08,0,0.99,1.22,0.61,0.31
1,-0.08,0,0.99,1.71,0.49,0.43
1,-0.08,0,0.99,2.56,0.18,0.43
1,-0.08,0,0.99,1.28,0.61,0.24
1,-0.08,0,0.99,0.98,0.43,0.06
1,-0.08,0.01,0.99,1.77,0.55,0.06
1,-0.08,0,0.99,1.89,0.06,0.37
1,-0.08,0,0.99,1.65,0.85,0.18
1,-0.08,0,0.99,1.4,0.37,0.06
1,-0.08,0.01,0.99,2.08,0.49,0.12
1,-0.08,0,0.99,1.59,0.43,0.18
1,-0.08,0,0.99,1.83,0.85,0.12
1,-0.08,0,0.99,1.95,0.55,0.49
1,-0.08,0,0.99,1.89,0.61,0.18
1,-0.08,0,0.99,1.65,0.43,0.12
1,-0.08,0,0.99,1.95,0.92,0.18
1,-0.08,0,0.99,1.28,0.79,0.24
1,-0.08,0,0.99,1.95,0.55,0.37
1,-0.08,0,0.99,2.32,1.16,0.31
1,-0.08,0,0.99,1.77,0.31,0.55
1,-0.08,0,0.99,2.08,1.59,0.24
1,-0.07,0.01,0.99,0.79,0.12,0.43
1,-0.08,0,0.99,2.08,0.67,1.65
1,-0.08,0,0.99,1.04,0.73,0.55
1,-0.08,0,0.99,1.77,1.04,0.55
1,-0.08,0,0.99,1.89,0.31,0.24
1,-0.08,0,0.98,1.53,-0.12,0
1,-0.08,0,0.99,2.87,1.16,0.18
1,-0.08,0,0.99,2.08,0.24,-0.12
1,-0.07,0,0.99,1.59,1.34,-0.31
1,-0.08,0,0.99,0.49,-0.79,0.18
1,-0.08,0,0.99,1.95,0.37,0.37
1,-0.08,0,0.99,2.32,-0.12,0.43
1,-0.08,0,0.99,1.89,0.18,0.18
1,-0.08,0,0.99,2.32,0.67,0.06
1,-0.08,0,0.99,1.22,0.61,0.18
1,-0.08,0,0.99,0.98,0.18,0.18
1,-0.08,0,0.99,1.83,0.98,0.18
1,-0.08,0,0.99,2.01,0.49,0.49
1,-0.08,0,0.99,1.71,0.55,0.31
1,-0.08,0,0.99,1.95,0.73,0.18
1,-0.08,0,0.99,1.89,0.92,0.18
1,-0.08,0,0.99,1.34,0.37,0.18
1,-0.08,0,0.99,1.89,0.18,0.12
1,-0.08,0,0.99,2.08,0.24,0.37
1,-0.08,0,0.98,1.71,0.24,0.12
1,-0.08,0,0.99,1.65,0.67,-0.12
1,-0.08,0,0.99,1.34,0.55,0.12
1,-0.08,0,0.99,1.16,0.37,0.24
1,-0.08,0,0.99,1.71,0.92,0.31
1,-0.08,0,0.99,1.83,0.24,0.24
1,-0.08,0,0.99,1.89,0.31,0.24
1,-0.08,0,0.99,2.2,0.67,-0.12
1,-0.08,0,0.99,1.83,0.37,0.12
1,-0.08,0,0.99,2.01,0.37,0.12
1,-0.08,0,0.99,2.08,0.37,0.12
1,-0.08,0,0.99,2.08,0.43,0.24
1,-0.08,0,0.99,1.46,0.67,0.12
1,-0.08,0,0.99,1.53,0.24,0.37
1,-0.08,0,0.99,2.38,1.04,0.31
1,-0.08,0,0.99,1.4,1.1,0.24
1,-0.08,0,0.99,0.43,0.49,0
1,-0.08,0,0.99,1.16,0.98,-0.06
1,-0.08,0,0.99,1.34,0.18,0.12
1,-0.08,0,0.99,2.81,0.31,0.18
1,-0.08,0,0.99,2.87,0.24,0.24
1,-0.08,0,0.98,2.2,0,0.06
1,-0.08,0,0.99,1.65,0.92,0.18
1,-0.08,0,0.99,1.34,1.22,0
1,-0.08,0,0.99,1.28,0.67,0.12
1,-0.08,0,0.99,1.46,0.49,0.31
1,-0.08,0,0.99,2.01,0.18,0.37
1,-0.08,0,0.99,2.14,0.43,0.24
1,-0.08,0,0.99,1.77,0.55,0.18
1,-0.08,0,0.98,1.34,0.73,0.24
1,-0.08,0,0.99,1.04,0.18,0.31
1,-0.08,0,0.99,1.46,0.79,0.37
1,-0.08,0,0.99,1.34,0.73,0.31
1,-0.08,0,0.99,1.59,0.55,0.24
1,-0.08,0,0.99,1.16,0,0.43
1,-0.08,0,0.99,1.77,0.55,0.31
1,-0.08,0,0.99,1.59,-0.06,0.24
1,-0.08,0,0.99,1.53,0.92,0.31
1,-0.08,0,0.99,1.53,0.31,0.24
1,-0.08,0,0.99,1.4,0.49,0.18
1,-0.08,0,0.99,2.32,0.61,0.24
1,-0.08,0,0.99,1.77,0.18,0.12
1,-0.08,0,0.99,1.65,0.55,0.24
1,-0.08,0,0.99,1.46,0.73,0.24
1,-0.08,0,0.99,1.65,0.49,0.18
1,-0.08,0,0.99,1.71,0.79,0.24
1,-0.08,0,0.99,2.26,0.37,0.31
1,-0.08,0,0.99,1.89,0.43,0.24
1,-0.08,0,0.99,1.83,0.73,0.12
1,-0.08,0,0.99,1.77,0.55,0.31
1,-0.07,0,0.99,1.83,0.73,0.24
1,-0.08,0,0.99,1.34,0.61,0.18
1,-0.07,0,0.99,1.89,0.67,0.31
1,-0.07,0,0.99,2.26,0.61,0.12
1,-0.07,0,0.99,1.89,0.61,0.31
1,-0.08,0,0.99,1.4,0.73,0.31
1,-0.07,0,0.99,1.22,0.49,0.37
1,-0.07,0,0.99,1.89,0.37,0.06
1,-0.08,0,0.99,1.4,0.61,0.37
1,-0.08,0,0.99,2.01,0.24,0.18
1,-0.07,0,0.99,2.14,0.43,0.31
1,-0.08,0,0.99,1.89,0.79,0.31
1,-0.07,0,0.99,1.59,0.79,0.18
1,-0.07,0,0.99,2.14,0.12,0.12
1,-0.08,0,0.99,2.2,-0.31,0.12
1,-0.08,0,0.99,1.28,0.18,0.18
1,-0.07,0,0.99,2.2,0.31,0.31
1,-0.08,0,0.99,2.01,0.61,0.24
1,-0.08,0,0.99,2.01,0.61,0.37
1,-0.08,0,0.99,2.08,-0.06,0.43
1,-0.08,0,0.99,1.83,0.73,0.18
1,-0.08,0,0.99,1.95,0.92,-0.12
1,-0.08,0,0.99,1.34,0.43,0.06
1,-0.07,0,0.99,2.14,0.79,0.31
1,-0.08,0,0.99,1.95,0.61,0.31
1,-0.08,0,0.99,1.95,0.49,0.18
1,-0.07,0,0.99,1.89,1.46,0.18
1,-0.08,0,0.99,1.1,0.43,-0.06
1,-0.07,0,0.99,2.38,0.43,-0.06
1,-0.07,0,0.99,2.44,0.06,0.31
1,-0.08,0,0.99,1.89,0.55,0.43
1,-0.07,0,0.99,1.28,1.22,0.24
1,-0.07,0,0.99,0.37,0.73,0.31
1,-0.07,0,0.99,1.46,0.61,0.12
1,-0.07,0,0.99,2.32,0.55,0.24
1,-0.07,0,0.99,1.59,0.12,0.18
1,-0.07,0,0.99,1.59,0.85,0.18
1,-0.07,0,0.99,2.01,0.79,0.61
1,-0.07,0,0.99,1.83,0.61,0.24
1,-0.07,0,0.99,1.4,0.24,0.24
1,-0.07,0,0.99,1.83,0.06,0.24
1,-0.07,0,0.99,2.14,0.55,0.31
1,-0.07,0,0.99,1.59,0.37,0.43
1,-0.07,0,0.99,1.4,1.22,0.24
1,-0.07,0,0.99,1.4,0.61,0.24
1,-0.07,0,0.99,1.46,0.85,0.24
1,-0.07,0,0.99,1.4,0.43,0.12
1,-0.07,0,0.99,1.65,0.73,0.12
1,-0.07,0,0.99,1.77,0.73,0.18
1,-0.07,0,0.99,1.77,0.37,0.24
1,-0.07,0,0.99,2.2,0.43,0.31
1,-0.07,0,0.99,1.28,0.85,0.18
1,-0.07,0,0.99,1.46,0.43,0.31
1,-0.07,0,0.99,1.83,0.43,0.31
1,-0.07,0,0.99,1.77,0.67,0.31
1,-0.07,0,0.99,1.4,0.67,0.12
1,-0.07,0,0.99,1.71,0.31,0.31
1,-0.07,0,0.99,1.83,0.55,0.24
1,-0.07,0,0.99,1.83,0.49,0.24
1,-0.07,0,0.99,1.53,0.73,0.12
1,-0.07,0,0.99,1.95,0.18,0.12
1,-0.07,0,0.99,2.2,0.55,0.24
1,-0.07,0,0.99,1.71,0.55,0.37
1,-0.07,0,0.99,1.65,0.55,0.18
1,-0.07,0,0.99,2.01,0.49,0.24
1,-0.07,0,0.99,1.83,0.24,0.31
1,-0.07,0,0.99,2.01,0.31,0.12
1,-0.07,0,0.99,2.44,0.61,0.37
1,-0.07,0,0.99,1.59,0.61,0.31
1,-0.07,0,0.99,1.95,0.79,0.24
1,-0.07,0,0.99,1.65,0,0.24
1,-0.07,0,0.99,1.89,0.55,0.18
1,-0.07,0,0.99,1.46,0.37,0.24
1,-0.07,0,0.99,1.46,0.49,0.24
1,-0.07,0,0.99,1.34,0.31,0.37
1,-0.07,0,0.99,1.89,0.67,0.49
1,-0.07,0,0.99,1.89,0.85,0.31
1,-0.07,0,0.99,1.16,0.18,0.31
1,-0.07,0,0.99,1.53,0.37,0.43
1,-0.07,0,0.99,1.89,0.85,0.49
1,-0.07,0,0.99,1.53,0.85,0.18
1,-0.07,0,0.99,1.77,0.18,0.24
1,-0.07,0,0.99,1.71,0,0.37
1,-0.07,0,0.99,1.53,-0.06,0
1,-0.07,0,0.99,1.95,0,0.12
1,-0.07,0,0.98,1.83,-0.37,0
1,-0.07,0,0.99,1.28,0.55,0.18
1,-0.07,0.01,0.98,1.83,0.85,0.24
1,-0.08,0,0.98,2.14,0.61,0.24
1,-0.07,0,0.99,1.53,0.55,0.12
1,-0.08,0,0.98,1.16,-1.16,0
1,-0.07,0,0.99,1.34,0.37,0.37
1,-0.07,0.01,0.99,1.34,-0.73,0.61
1,-0.07,0,0.99,2.2,0.92,0.79
1,-0.08,0,0.98,2.38,0.18,0.37
1,-0.08,0.01,0.99,3.05,2.87,0.49
1,-0.07,0,0.99,0,0.79,0.73
1,-0.08,0,0.98,-2.08,-0.43,0.73
1,-0.06,0.02,1,-1.1,3.23,0.06
1,-0.04,0.02,1,-1.16,-4.03,3.91
1,-0.1,0.1,1.03,-0.12,15.44,23.5
1,0.05,-0.01,1.01,-3.05,9.03,2.75
1,0,0.05,0.97,-1.16,7.69,-4.52
1,-0.01,0.04,0.97,-0.67,4.64,-13.18
1,0.04,-0.03,0.98,3.23,9.95,-3.05
1,-0.06,-0.14,1.07,67.02,23.38,0.67
1,0.02,-0.08,0.97,4.21,-11.66,-32.04
1,-0.14,-0.03,0.99,8,-3.72,-4.21
1,-0.1,-0.04,1,12.51,5.31,-7.32
1,-0.07,-0.11,1.03,46.26,21.91,13.18
1,0,-0.13,0.99,-2.14,2.75,-7.51
1,-0.05,-0.08,0.99,0.12,-1.59,-8.67
1,0.04,-0.04,0.95,8.48,16.11,-12.57
1,-0.09,-0.03,0.98,-0.31,5.19,-4.7
1,-0.03,-0.07,0.98,-5.25,3.05,-6.53
1,-0.1,-0.02,0.97,-1.83,8.24,-2.93
1,-0.1,-0.04,0.99,-0.18,1.46,4.64
1,-0.1,-0.01,0.99,-2.56,5.55,5.25
1,-0.07,0.01,0.97,-8,-1.4,-2.93
1,-0.07,0.02,0.99,-6.29,-1.59,1.28
1,-0.04,0,1,-6.16,-2.87,0.06
1,-0.06,0.01,0.99,-1.83,-1.16,0.61
1,-0.01,0.01,0.99,-0.92,0.37,0.24
1,-0.04,0.02,0.97,-0.06,0.55,2.93
1,-0.06,0.04,0.98,1.83,1.34,3.3
1,-0.07,0.04,0.99,1.34,0.73,5.49
1,-0.06,0.02,1,3.36,1.59,1.83
1,-0.06,0.02,0.99,2.32,1.04,0.55
1,-0.07,0,0.99,0.73,1.4,0
1,-0.06,0.03,0.99,0.43,2.26,1.71
1,-0.05,0,0.99,-0.49,2.62,1.22
1,-0.06,0.03,1,1.16,3.23,-0.12
1,-0.05,0,0.99,2.32,3.85,5
1,-0.06,0.02,0.98,3.17,2.81,3.11
1,-0.07,0.03,0.99,2.93,2.99,-0.55
1,-0.02,0.01,0.99,-1.53,-3.11,-4.94
1,-0.07,0.02,0.99,2.44,0.85,-1.22
1,-0.02,0.02,0.99,4.46,3.23,4.46
1,-0.07,0.04,1,2.14,0.24,7.51
1,-0.01,0,0.98,1.16,2.44,11.47
1,-0.02,0.05,0.99,-1.59,3.05,12.08
1,0,0.01,0.98,-1.4,1.28,7.45
1,-0.01,0.02,0.99,2.81,5.31,5.62
1,-0.06,0.05,0.99,-0.24,1.53,5.19
1,-0.06,0.04,0.98,-1.4,1.46,3.66
1,-0.08,0.06,1,-2.08,0.61,9.28
1,-0.02,0.05,0.99,-0.73,1.16,6.29
1,-0.02,0.03,0.99,-2.38,-5.43,-0.31
1,0.06,-0.01,0.98,3.23,5.31,-11.78
1,0.07,0.06,1,0.79,2.87,-7.57
1,-0.03,0.07,1,-0.24,-9.95,-9.52
1,-0.03,0.05,0.98,5.8,0.92,1.4
1,-0.03,0.02,0.99,1.89,0.85,5.98
1,-0.02,0.04,1,3.48,-0.49,-1.59
1,-0.03,0.02,0.98,2.44,-2.99,-0.98
1,-0.03,0.03,0.99,2.01,1.89,-1.04
1,-0.03,0.03,0.99,2.2,0.73,-1.95
1,-0.03,0.04,0.99,1.22,1.04,-0.98
1,-0.03,0.04,0.99,1.34,0.24,-1.34
1,-0.04,0.04,0.99,0.49,0.43,-0.24
1,-0.04,0.04,0.99,0.61,0.85,-2.93
1,-0.03,0.04,0.99,2.32,1.77,-1.46
1,-0.03,0.04,0.99,2.5,1.04,-0.61
1,-0.03,0.04,0.99,2.26,0.92,0.06
1,-0.03,0.04,0.99,2.56,0.61,-0.06
1,-0.03,0.04,0.99,0.92,-0.49,0.92
1,-0.03,0.04,0.99,1.4,0.92,0.37
1,-0.03,0.04,0.99,1.28,-0.37,0.73
1,-0.03,0.04,0.99,2.2,0.12,-0.61
1,-0.03,0.04,0.99,1.16,0.55,0.49
1,-0.03,0.04,0.99,1.71,0.92,0
1,-0.03,0.04,0.99,1.22,0.92,0.73
1,-0.03,0.04,0.99,1.28,0.98,0.61
1,-0.03,0.04,0.99,1.46,1.04,0.18
1,-0.03,0.04,0.99,1.53,0.49,0.79
1,-0.03,0.04,0.99,1.65,-0.12,0.73
1,-0.03,0.04,0.99,1.04,0.43,0.55
1,-0.03,0.04,0.99,1.4,-0.31,0.61
1,-0.03,0.04,0.99,0.92,0.24,0.06
1,-0.03,0.04,0.99,1.46,0.12,0.31
1,-0.03,0.04,0.99,1.65,0.06,0.18
1,-0.03,0.04,0.99,1.46,0.98,0.43
1,-0.03,0.04,0.99,2.01,1.53,0.55
1,-0.03,0.04,0.99,1.46,0.12,0.24
1,-0.03,0.04,0.99,2.08,-0.18,0.49
1,-0.04,0.04,0.99,1.71,-0.43,0.18
1,-0.03,0.04,0.99,1.83,0.67,-0.24
1,-0.03,0.04,0.99,1.28,0.18,-1.71
1,-0.03,0.05,0.99,0.73,-0.49,-0.79
1,-0.03,0.04,0.99,0.73,-0.06,0.37
1,-0.04,0.04,0.99,0.98,-0.06,-0.37
1,-0.03,0.04,0.99,1.46,-0.06,0.31
1,-0.04,0.04,0.99,1.77,-0.24,-0.37
1,-0.03,0.05,0.99,1.28,1.22,-0.92
1,-0.04,0.04,0.99,1.77,0.12,0.12
1,-0.03,0.04,0.99,1.53,0.37,0.06
1,-0.04,0.05,0.99,1.65,0.18,0.06
1,-0.04,0.04,0.99,1.28,0.49,0.43
1,-0.04,0.05,0.99,1.28,1.4,0.18
1,-0.03,0.05,0.99,1.59,1.65,0.43
1,-0.03,0.04,0.99,1.46,1.4,0.37
1,-0.03,0.05,0.99,1.95,0.61,-0.43
1,-0.03,0.05,0.99,1.77,1.53,0.06
1,-0.03,0.05,0.99,1.95,0.18,0.31
1,-0.03,0.05,0.99,1.83,0.73,0.31
1,-0.03,0.05,0.99,1.46,-0.55,1.71
1,-0.03,0.05,0.99,1.77,0.18,0.24
1,-0.03,0.05,0.99,0.92,-0.24,0.24
1,-0.03,0.04,0.98,0.55,0.67,-0.18
1,-0.03,0.05,0.99,0.67,0.55,1.59
1,-0.04,0.05,0.99,0.67,1.16,0.79
1,-0.03,0.05,0.99,0.92,2.14,0.43
1,-0.03,0.05,0.99,2.01,1.1,-0.12
1,-0.03,0.06,0.99,1.4,0.31,0.12
1,-0.03,0.06,0.99,1.89,-2.01,0.67
1,-0.03,0.06,0.99,2.62,-0.98,0.43
1,-0.04,0.04,0.99,2.01,-1.1,0.98
1,-0.04,0.04,0.99,0.55,0.73,0
1,-0.04,0.06,0.98,0.43,0.31,0.55
1,-0.04,0.06,0.98,1.53,-1.59,0.85
1,-0.04,0.06,0.99,2.32,-0.55,1.04
1,-0.06,0.03,1.06,1.16,0.49,2.5
1,-0.04,0.04,0.99,2.2,3.23,0.12
1,-0.04,0.05,0.99,1.89,0.31,-0.67
1,-0.04,0.05,0.99,2.56,0.79,-0.18
1,-0.04,0.05,0.99,1.95,-0.12,0.55
1,-0.04,0.04,0.99,1.95,1.16,0.06
1,-0.03,0.05,0.99,2.14,1.59,-0.67
1,-0.04,0.05,0.99,2.32,0.43,-0.43
1,-0.03,0.05,0.99,2.26,-0.18,0.43
1,-0.05,0.05,0.99,2.69,-1.1,-1.83
1,-0.04,0.04,0.99,1.95,1.83,-1.53
1,-0.03,0.04,0.99,2.81,1.4,-1.4
1,-0.03,0.05,0.99,1.53,-0.24,1.1
1,-0.04,0.04,0.99,1.95,-0.79,1.1
1,-0.04,0.04,0.99,1.89,0,0
1,-0.04,0.04,0.99,1.83,0.49,0
1,-0.04,0.04,0.99,1.34,1.77,0.06
1,-0.03,0.04,0.99,0.98,1.83,0.85
1,-0.03,0.05,0.99,0.98,0.37,0.85
1,-0.04,0.05,0.99,0.67,-2.44,3.91
1,-0.04,0.05,0.99,0.43,-1.53,3.05
1,-0.04,0.05,0.98,-0.12,-0.24,0.18
1,-0.04,0.05,0.99,0.85,0.79,-0.12
1,-0.04,0.05,0.99,1.46,-0.31,0.61
1,0.04,0.24,0.85,11.41,2.62,8.61
1,-0.06,0.04,1.06,3.17,-1.46,5.49
1,0.02,0.2,0.96,3.66,-1.1,0.73
1,-0.04,-0.01,1.03,3.42,-0.37,-1.22
1,0.04,0.16,0.94,1.65,0.06,-3.42
1,0.02,0.09,1,2.01,2.38,-7.81
1,-0.04,0.07,0.99,3.85,-0.61,4.33
1,-0.06,0.05,1,5.37,-1.53,4.58
1,-0.06,0.05,0.99,4.52,-1.28,-2.93
1,-0.04,0.04,0.99,4.76,-2.08,0.24
1,-0.07,0.01,0.99,3.66,-2.44,1.04
1,-0.05,0.04,0.98,2.87,-0.79,-2.26
1,-0.05,0.06,0.99,3.05,-2.32,-5.43
1,-0.05,0.03,0.98,4.27,-0.12,0.37
1,-0.06,0.02,0.99,7.2,-0.49,-2.5
1,-0.08,0.01,0.98,5.37,2.26,-4.15
1,-0.06,0.02,0.99,5.55,0.43,-1.77
1,-0.1,0.02,0.97,-0.79,7.39,-21.48
1,-0.07,-0.11,1,3.17,3.3,-26.25
1,-0.07,-0.02,0.99,5.25,1.59,-19.23
1,-0.06,0.01,1,3.11,5,-22.77
1,-0.06,-0.04,0.99,3.66,5.07,-17.76
1,-0.05,0.03,1,6.53,3.85,-13.18
1,-0.05,0,0.99,7.81,2.93,-8.61
1,-0.07,-0.02,1,7.93,4.03,-10.13
1,-0.03,-0.04,0.97,-7.39,1.65,-20.81
1,0.02,-0.04,1,-9.22,3.3,-18.55
1,-0.03,-0.02,0.99,-2.87,-0.43,-9.64
1,-0.04,0.01,0.99,-1.77,0.37,-5.31
1,-0.04,0.01,1,-0.43,0.31,-5.37
1,-0.02,-0.02,0.99,5.25,1.22,-9.16
1,-0.04,0.05,0.98,6.47,5.55,-24.41
1,-0.02,0.02,0.99,1.83,1.46,-8.61
1,-0.03,0.01,0.98,0.24,-0.55,-1.28
1,-0.02,0,1,2.87,-0.98,0.85
1,-0.02,-0.01,0.99,6.1,-1.4,0.98
1,-0.02,-0.02,0.99,6.47,1.04,-6.1
1,-0.02,0,1,2.87,1.34,-0.98
1,0.01,-0.05,1,3.91,-0.06,-14.04
1,0.04,-0.05,1,12.82,3.54,-17.76
1,-0.02,-0.04,0.99,0,2.14,-1.53
1,-0.02,-0.03,0.98,-3.97,-1.1,-5.13
1,-0.05,0.02,0.98,-4.21,-1.1,-4.82
1,-0.02,-0.06,1,-3.11,-0.55,-2.32
1,-0.06,0.05,0.99,-4.09,-1.59,-5
1,-0.03,0,0.98,-4.03,0.24,-2.26
1,-0.04,0.03,0.98,1.59,-0.37,-5.8
1,-0.04,0.05,1,-0.12,-0.18,-4.27
1,-0.04,0.05,0.99,1.83,1.16,0.31
1,-0.05,0.03,1,1.53,-0.12,1.16
1,-0.06,0.08,0.99,2.38,-2.5,6.71
1,-0.02,0.05,0.98,2.87,2.08,1.16
1,-0.05,0.05,0.98,0.43,-3.72,1.95
1,0.03,0.03,1,2.56,0.24,-1.89
1,-0.01,0.01,0.97,5.13,2.2,-1.77
1,-0.05,0.01,0.97,8.18,-0.98,-1.83
1,-0.07,0,0.99,10.86,1.34,-6.47
1,-0.05,-0.04,0.98,6.35,2.75,-2.93
1,-0.07,-0.12,1,1.59,4.52,-1.83
1,-0.09,-0.01,0.99,1.16,4.33,3.66
1,-0.08,0.03,1,-1.71,7.75,-0.61
1,-0.09,0.02,0.99,-7.51,-6.96,-3.91
1,-0.05,-0.03,0.97,-2.81,6.1,8.24
1,-0.07,-0.01,1.02,-9.4,-10.44,-2.81
1,-0.06,0.05,1,0.85,5,6.29
1,-0.07,0.05,0.94,-5.25,-2.87,-10.56
1,-0.05,0.06,0.98,3.97,3.17,-8.73
1,-0.08,0.01,0.97,-0.61,-3.78,-4.03
1,-0.04,0.08,1.01,0.31,-2.26,-2.5
1,-0.06,0.03,0.99,0.85,-2.2,7.14
1,-0.05,0.09,0.99,4.52,1.83,6.84
1,-0.04,0.06,0.97,0.61,-1.1,6.41
1,-0.09,0.1,0.98,0.92,5.55,10.38
1,-0.12,0.11,0.99,-1.22,1.28,16.11
1,-0.02,0.03,0.94,-2.44,11.35,19.23
1,-0.03,0.07,0.97,-3.05,-1.22,22.58
1,0.05,0,1,-3.97,3.91,14.77
1,-0.01,0.09,0.99,-3.78,6.1,13.55
1,0.04,0.03,1,-0.61,4.21,8
1,-0.01,0.1,0.97,-2.08,4.82,10.07
1,0.01,0.06,0.99,4.15,-0.79,8.73
1,-0.02,0.06,0.97,0.18,5.07,3.78
1,-0.04,0.12,0.99,-5.86,9.95,24.35
1,0.01,0.08,1.01,-5.49,-15.56,-0.12
1,0,0.15,1.02,-2.32,-7.39,4.27
1,0.11,0.02,0.99,0.73,-7.75,-3.23
1,0.08,0.07,0.99,3.66,9.83,2.14
1,-0.01,0.11,0.98,8.61,-3.85,-16.85
1,-0.04,0.13,0.99,6.77,-0.67,-14.22
1,-0.02,0.06,0.97,8.85,-0.24,-10.8
1,0,0.03,0.99,7.87,2.62,-26.18
1,0,0.09,0.99,10.01,-4.21,-26.61
1,-0.05,0.05,0.98,8.18,-12.15,-3.97
1,-0.04,0.01,1,7.87,-9.34,-1.65
1,-0.09,0,0.98,5.31,-5.07,-10.56
1,-0.05,0.04,0.98,3.05,-4.88,0.49
1,-0.07,0.05,0.97,3.17,-3.36,-0.06
1,-0.07,0.04,0.98,3.78,-2.62,-1.59
1,-0.05,-0.01,1,5.49,-0.49,2.69
1,-0.09,0.01,0.99,3.91,-4.09,9.46
1,-0.08,0.02,0.98,5.86,-3.36,2.62
1,-0.09,0.02,0.97,4.64,-2.93,-5.92
1,-0.07,0.01,1,4.82,-2.62,-1.71
1,-0.11,0.01,0.97,2.62,-1.53,-9.03
1,-0.11,-0.01,0.98,1.59,-0.73,-9.58
1,-0.1,0.01,0.98,1.95,-0.73,-6.53
1,-0.08,0.02,0.99,2.08,-1.1,-1.34
1,-0.1,0.03,0.97,1.16,-0.18,-1.59
1,-0.09,0.06,0.98,4.39,-0.49,-0.67
1,-0.11,-0.03,0.98,8.73,2.62,-12.76
1,-0.07,0.03,1.03,13.31,3.72,-23.01
1,-0.1,-0.03,0.99,17.94,2.62,-28.63
1,-0.08,-0.05,0.98,14.65,5.49,-44.98
1,-0.13,-0.06,1,7.2,4.82,-43.4
1,-0.1,0,0.96,10.56,6.96,-40.1
1,-0.08,-0.07,0.98,8.67,7.45,-27.65
1,-0.07,-0.06,1.02,9.83,5.31,-14.28
1,-0.09,-0.05,0.99,11.66,4.27,-13.24
1,-0.07,-0.11,0.99,8.97,3.36,-6.04
1,-0.02,-0.1,1,6.23,4.94,-7.14
1,-0.11,-0.05,0.97,5.25,6.23,-13.31
1,-0.06,-0.08,0.98,0.73,6.47,-12.02
1,-0.07,-0.06,0.99,-2.62,5.98,-15.38
1,-0.05,-0.1,1,4.76,5.07,-23.07
1,0,-0.09,0.99,5.62,2.81,-6.71
1,-0.08,-0.08,0.99,-2.87,5.13,-5.43
1,-0.08,-0.04,1,-2.2,7.08,-8.12
1,-0.01,-0.08,1.01,-7.14,6.59,-5.74
1,0,-0.02,0.99,-3.97,8.73,-4.33
1,0.02,-0.12,1.01,-4.52,4.21,-0.67
1,-0.04,-0.02,1.01,-0.55,5.62,-2.69
1,-0.02,0.01,1,-5.07,0.55,-3.05
1,-0.03,0,0.96,-3.11,4.94,-3.6
1,0,-0.02,0.97,-7.14,5.25,-0.31
1,0.01,-0.07,0.95,-8.91,4.7,-1.28
1,0.05,-0.02,0.97,-6.16,-0.67,-3.48
1,0.02,-0.01,0.99,-1.28,-0.37,-5.31
1,0.02,-0.03,1,-1.77,-3.3,-8.67
1,-0.01,0.03,0.99,7.39,-1.77,-8.3
1,0,0.02,0.96,13.92,-3.36,-6.16
1,0,0,1.01,5.07,-0.24,-9.95
1,0.01,0.01,1,-3.85,-1.04,-6.96
1,-0.02,0.04,1.01,-8.12,-7.93,-16.85
1,0.02,0.01,0.98,-0.61,-1.65,-9.52
1,0.02,-0.05,0.99,3.23,-1.22,-7.63
1,-0.05,0.03,0.99,14.22,2.69,-1.95
1,-0.07,0.07,0.99,3.3,-3.66,-11.54
1,-0.07,-0.01,1,-3.05,-2.01,-11.96
1,-0.06,0.05,0.97,1.4,1.65,-8.79
1,-0.06,-0.04,1,-14.59,-14.22,-19.65
1,-0.05,0.05,0.99,3.78,6.23,-10.74
1,-0.05,0.09,1,-3.23,0.06,-9.58
1,-0.04,0.03,0.99,1.34,2.44,-1.77
1,-0.03,0.01,0.99,0.12,2.2,-2.75
1,-0.02,-0.01,1,-0.49,1.28,-7.2
1,-0.03,0.05,1,-0.92,-0.12,-5.74
1,-0.03,0.05,0.99,2.44,2.93,-3.66
1,-0.03,0.03,0.98,-0.18,1.71,-4.15
1,-0.01,0.03,0.99,2.56,2.87,-6.41
1,-0.03,0.02,0.99,2.69,1.95,-2.93
1,-0.02,0,0.99,-0.43,0.61,-5.92
1,-0.03,0.02,0.99,3.6,2.81,-3.05
1,-0.01,0.03,0.99,3.17,2.2,-3.85
1,-0.02,0.02,0.99,2.99,0.43,-5.13
1,-0.03,0.06,0.99,4.94,5.74,-5.25
1,-0.02,0.04,0.99,2.14,2.14,-5.74
1,-0.01,0.06,0.99,0.06,3.36,-7.39
1,0,0.04,1,-0.24,1.28,-6.35
1,-0.02,0.02,0.99,-0.06,0.37,-6.71
1,-0.02,0.04,1,0.73,-0.06,-7.14
1,-0.02,0.04,0.99,0.18,-0.61,-5.92
1,0.02,0.03,1,0.12,-0.18,-5.49
1,0.01,0.03,0.97,-0.24,-0.37,-4.94
1,0.01,0.04,1,-0.73,-1.34,-6.71
1,0,0.05,0.99,-0.67,-0.49,-1.16
1,-0.01,0.05,0.98,-0.06,0,-2.87
1,-0.01,0.05,0.99,0.98,1.59,-11.23
1,0,0.06,0.99,1.65,0.92,-10.19
1,0.02,0.04,1,0.37,1.16,-17.4
1,0,0.03,0.99,-0.55,-0.37,-8.12
1,0,0.03,1,-0.85,-0.92,-3.36
1,0.01,0.04,0.99,0.49,-1.4,-2.38
1,-0.01,0.12,0.98,0.18,0.06,-16.91
1,0,0.05,0.99,-1.34,-1.34,-3.36
1,-0.01,0.01,0.99,-1.28,-0.92,-8.06
1,0.02,0.1,0.98,-2.08,2.44,-6.71
1,0,0.09,0.99,-1.4,0.06,-3.36
1,0,0.1,0.98,1.22,-0.12,3.48
1,-0.02,0.08,0.99,2.56,-0.92,2.75
1,-0.02,0.07,0.99,7.08,2.14,4.58
1,-0.02,0.01,1,10.99,5.37,1.4
1,-0.02,0.06,1,5.68,0.67,-1.22
1,-0.03,0.05,0.98,4.21,2.56,-2.44
1,0.02,0.03,0.99,2.38,1.1,-0.85
1,0.02,0.05,0.99,3.91,3.85,-1.71
1,0,-0.05,1,6.59,2.08,-1.71
1,0.02,0,0.99,-0.55,-2.5,-9.52
1,0,0,0.99,-2.2,7.57,-8.18
1,0,0.02,1.02,10.8,-4.7,-17.27
1,0.03,-0.03,1.01,5.92,1.89,-24.41
1,0,0.01,0.99,2.56,7.02,-11.66
1,0.04,0.06,1,2.32,3.91,0.67
1,0.06,0.02,0.97,1.83,-9.89,-15.5
1,-0.02,-0.05,0.99,4.15,-1.77,-40.59
1,0.08,0,0.98,-6.84,-16.36,-12.76
1,0,0.07,0.99,-3.66,-4.64,-9.03
1,0.01,0.02,0.98,-1.28,-5.37,-24.66
1,0.01,0.03,0.99,-1.77,-3.97,-16.85
1,0.03,-0.06,0.98,10.62,3.17,20.63
1,-0.01,-0.04,1,-3.91,-1.22,4.09
1,-0.06,0.02,0.99,1.71,1.34,1.4
1,-0.07,0,1,5.31,0.73,-23.01
1,0,0.01,0.99,-3.54,-1.77,-2.38
1,-0.08,0.03,0.99,3.3,-2.38,-17.58
1,0,0.03,0.98,10.56,1.65,-41.44
1,-0.03,0.01,1,4.88,-0.18,-17.27
1,-0.06,0.03,0.99,7.81,2.2,-22.4
1,-0.01,0.02,0.99,6.29,1.16,-25.82
1,0,0.01,1,7.02,1.16,-32.59
1,-0.06,-0.02,0.99,8.42,2.26,-32.84
1,-0.02,-0.01,0.99,6.35,2.93,-26.61
1,-0.01,-0.01,1,6.53,0.18,-25.57
1,-0.04,0,0.99,4.52,3.85,-24.9
1,-0.01,-0.01,0.99,2.99,-0.24,-10.5
1,-0.02,-0.03,1,6.59,1.28,-33.33
1,0,-0.02,1,4.64,1.83,-37.78
1,-0.05,-0.02,1,5.68,2.56,-41.38
1,-0.05,-0.01,0.99,4.39,0.18,-47.12
1,-0.04,0,0.99,2.32,-1.71,-63.35
1,-0.04,-0.01,0.99,4.82,1.65,-67.38
1,-0.05,-0.02,1,3.66,0.92,-56.58
1,-0.07,-0.02,1,4.15,2.93,-48.46
1,0,-0.01,0.99,2.44,-0.85,-62.26
1,-0.02,-0.03,0.99,2.08,-2.26,-71.53
1,-0.04,-0.02,0.99,6.1,1.77,-57.37
1,-0.05,-0.02,0.98,2.26,-3.05,-52.31
1,-0.04,-0.02,0.99,4.82,0.98,-40.04
1,-0.05,-0.03,0.99,4.27,0.06,-49.99
1,-0.05,-0.01,0.98,3.72,-0.12,-43.95
1,-0.04,-0.04,0.99,4.21,1.1,-44.49
1,-0.06,-0.08,0.99,1.28,2.5,-37.72
1,-0.04,-0.03,1,3.6,-3.36,-32.65
1,-0.02,-0.09,0.88,1.83,-11.54,-22.95
1,-0.07,-0.04,0.99,5.74,4.58,-23.07
1,-0.09,-0.04,1.01,3.91,1.83,-20.32
1,-0.07,-0.01,1,4.76,3.6,-29.17
1,-0.06,0.01,0.99,3.78,0.73,-26.98
1,-0.07,0,0.99,3.05,0.61,-33.81
1,-0.05,0.02,0.99,1.83,0.06,-9.89
1,-0.07,-0.03,0.98,3.91,1.71,-1.53
1,-0.03,0.01,0.98,0.61,-2.75,7.51
1,-0.09,-0.05,0.99,8.54,11.11,-7.69
1,-0.04,0.07,0.97,-0.18,-5,-6.1
1,-0.08,-0.05,1,2.5,3.54,6.65
1,-0.07,-0.01,0.97,-1.16,-2.62,-6.47
1,-0.07,-0.04,0.99,1.34,-0.67,-4.52
1,-0.06,0.01,0.98,-0.18,-0.31,0.24
1,-0.07,-0.01,0.99,2.93,-1.71,-4.33
1,-0.08,-0.03,0.99,3.91,1.71,-11.17
1,-0.05,0.01,1,3.78,1.53,-2.81
1,-0.08,-0.03,0.99,3.48,3.97,-2.75
1,-0.07,-0.03,0.99,3.85,1.65,-2.81
1,-0.1,-0.04,0.98,0.55,-1.28,0.73
1,-0.1,-0.02,0.98,-14.53,5.86,8.18
1,-0.06,-0.02,0.98,-5.62,1.71,7.39
1,-0.08,0.04,1,0.73,3.05,0.24
1,-0.07,0.02,1,2.75,1.4,-12.15
1,-0.06,-0.01,1.02,4.09,1.65,-0.37
1,-0.04,-0.01,0.99,2.32,0.92,1.16
1,-0.12,0.05,0.98,2.01,0.67,-4.76
1,-0.08,-0.01,0.99,2.14,0.06,-1.83
1,-0.09,0,0.99,2.01,-0.49,-2.44
1,-0.08,-0.01,1,5.62,0.18,0.49
1,-0.07,-0.01,0.98,2.75,-1.83,-3.17
1,-0.05,-0.02,0.98,3.11,-1.04,6.16
1,-0.07,0.02,1,1.83,-1.04,-1.22
1,-0.01,-0.02,1,-0.31,-0.37,-8.54
1,-0.02,-0.03,1,4.15,0.85,-9.22
1,-0.06,-0.01,0.98,-0.92,-1.71,-4.21
1,-0.04,-0.01,0.99,5.74,-0.55,-9.7
1,-0.06,-0.01,0.99,2.44,1.34,-5.37
1,-0.08,0,0.99,3.85,1.04,-6.77
1,-0.08,-0.02,0.99,1.83,2.32,-7.81
1,-0.08,0,0.98,-0.24,2.38,-2.56
1,-0.02,-0.04,1,0.55,5.68,-4.88
1,-0.03,0,0.99,1.77,3.36,5.55
1,-0.04,-0.01,0.99,0.55,1.28,2.14
1,-0.06,0,0.99,1.83,0.98,-2.08
1,-0.02,-0.01,0.98,0.12,-1.04,-1.4
1,-0.05,0.02,0.98,2.2,-0.61,1.83
1,-0.01,-0.03,0.98,3.05,0.49,0.61
1,-0.04,-0.01,0.99,5.07,4.39,4.15
1,-0.04,-0.02,0.99,4.52,3.78,1.59
1,0.01,-0.06,1,0.61,5.07,0.55
1,0.02,-0.03,0.98,-2.87,5.98,3.78
1,-0.03,-0.04,0.98,0.55,2.14,4.09
1,-0.04,-0.04,0.99,-4.94,-3.48,-2.08
1,-0.03,-0.01,0.98,-6.16,-1.46,2.62
1,-0.06,-0.01,0.99,-5.55,0,2.93
1,-0.03,0,0.99,-3.23,0.31,1.89
1,-0.05,-0.02,0.98,-0.31,0.37,2.01
1,-0.04,-0.01,0.98,1.4,-0.18,-2.93
1,-0.04,0.01,0.98,1.77,1.22,0.06
1,-0.03,0.01,0.99,3.66,0.18,-0.37
1,-0.02,0.03,1,2.62,-1.46,2.14
1,-0.02,0.02,1,1.04,-3.36,3.72
1,-0.05,0,0.98,3.66,1.22,-0.49
1,-0.05,-0.01,0.99,2.5,1.04,-1.22
1,-0.04,0.02,0.99,0.85,0.31,2.75
1,-0.04,0.02,0.99,1.53,1.34,0.18
1,-0.03,0.01,0.99,3.6,0.61,0.37
1,-0.03,0.02,0.98,3.42,2.08,2.2
1,-0.03,0.01,0.99,3.97,1.89,1.22
1,-0.04,0.02,1,4.64,1.77,2.38
1,-0.03,0.01,0.99,2.87,0.79,2.32
1,-0.03,0,0.99,3.11,2.32,2.87
1,-0.02,-0.01,0.99,1.16,2.81,4.76
1,-0.02,0.01,0.99,-0.06,3.97,3.23
1,-0.01,0.01,0.98,0.98,5.62,4.82
1,-0.02,0.07,1,0.31,3.6,0.85
1,0,0.06,0.98,1.16,-2.5,0.73
1,0.08,0.01,1,6.9,-9.46,4.15
1,0.03,0.03,0.99,4.46,-0.31,0.98
1,-0.08,0.06,1,7.45,-1.1,0.18
1,-0.03,-0.01,0.99,1.53,-2.2,0.61
1,-0.06,0.02,0.98,3.11,2.14,4.76
1,-0.08,-0.01,1,4.94,2.2,2.01
1,-0.04,0,0.98,-0.06,0.37,5
1,-0.06,-0.01,0.99,4.09,1.04,5.31
1,-0.04,0,0.99,1.53,-0.73,-4.7
1,-0.01,-0.01,0.99,2.75,1.22,-3.72
1,-0.03,-0.06,1,0.18,0.49,-3.17
1,-0.01,-0.05,0.99,1.1,0.79,-1.04
1,-0.04,-0.04,0.99,1.65,1.22,1.89
1,-0.04,-0.03,0.98,-0.24,0.49,-2.01
1,-0.04,-0.05,0.99,2.01,1.95,-1.65
1,-0.08,-0.04,0.99,-1.59,0.85,-1.71
1,0.02,-0.12,1,1.22,5.55,-4.7
1,-0.05,-0.04,0.99,6.9,5.86,4.39
1,-0.02,-0.02,1,2.14,1.4,2.99
1,-0.01,0,0.99,2.81,1.34,3.36
1,-0.01,-0.01,0.99,-2.38,0.67,3.6
1,-0.03,0.03,1,-1.28,0.73,6.1
1,-0.03,0.02,0.99,3.48,0.73,5.74
1,-0.02,-0.02,0.98,0.92,-1.04,6.71
1,-0.02,0.03,0.99,1.71,1.59,3.78
1,-0.02,0,1,3.17,2.87,2.93
1,-0.02,-0.01,0.99,-1.77,3.54,6.59
1,-0.01,-0.02,0.99,3.48,2.87,6.84
1,0.01,-0.02,0.99,0.43,0.92,8.97
1,0.01,0.03,0.99,2.32,-1.83,9.34
1,-0.03,0.08,0.99,4.27,-3.66,6.1
1,0.04,0.02,0.98,2.14,-1.53,15.87
1,0,0.02,0.98,6.16,1.16,0.06
1,0.01,-0.03,1,0,-2.44,-0.06
1,-0.02,0.01,0.99,0.79,-1.28,1.4
1,-0.03,-0.03,1,0.55,-1.1,8.12
1,-0.06,-0.04,0.99,3.91,1.53,0.73
1,-0.06,-0.05,1,6.16,3.17,-3.72
1,0,0.01,0.99,2.99,-0.43,-2.56
1,0,-0.03,0.99,4.21,0,-0.92
1,-0.03,-0.04,0.98,2.38,-1.22,2.93
1,-0.02,-0.05,0.99,-0.18,-2.2,3.17
1,-0.05,-0.05,0.99,0.43,-0.98,2.99
1,-0.03,-0.04,0.99,4.64,4.82,-0.85
1,-0.01,-0.04,0.99,1.22,2.38,-1.4
1,-0.01,-0.03,0.99,1.59,1.46,1.65
1,0.02,-0.04,1,1.16,1.28,-3.97
1,-0.02,-0.07,1,2.2,1.4,-1.4
1,-0.03,-0.05,0.99,1.83,1.83,1.83
1,-0.08,-0.09,0.99,2.81,2.81,0.31
1,-0.02,-0.09,0.99,-12.21,7.93,-0.67
1,0.01,-0.09,0.99,-1.59,-1.83,3.72
1,-0.01,-0.03,0.99,2.26,0.43,11.72
1,-0.01,-0.03,0.99,-1.59,-0.37,-0.43
1,0,-0.05,0.99,1.1,0.79,1.46
1,-0.01,0,0.99,-0.92,1.71,4.15
1,-0.01,-0.01,1,-1.77,0,0.55
1,-0.01,-0.02,0.99,-2.75,-1.71,4.76
1,0.01,-0.03,0.99,2.99,0.92,2.93
1,0,-0.02,0.98,2.14,2.2,3.91
1,-0.02,0.01,1,0.92,1.83,3.3
1,-0.01,0,0.99,-1.04,1.83,1.89
1,0.02,0,0.98,0.79,0.79,-0.31
1,0.01,0,1,4.09,2.26,1.89
1,0.01,0.03,0.98,2.44,2.99,1.04
1,0,-0.02,0.99,2.87,1.71,3.23
1,0.01,-0.02,0.99,-1.53,-1.4,1.34
1,0,0,0.99,2.01,-1.77,3.3
1,0.02,0.02,0.98,2.2,-1.59,7.02
1,0,0,0.99,13.06,-4.33,2.62
1,0.03,0.01,0.99,6.04,-3.66,2.99
1,0.06,0.04,0.99,6.23,1.46,-1.34
1,-0.02,-0.01,0.99,4.09,7.26,4.64
1,0.02,-0.02,0.98,0.43,-0.24,6.41
1,0.04,-0.01,1,0.98,1.1,11.78
1,-0.04,-0.05,0.99,3.85,3.78,6.84
1,0.03,-0.03,0.99,1.95,-1.59,6.9
1,-0.02,-0.05,0.99,0.79,-4.27,4.46
1,-0.03,-0.06,1,-0.37,-3.11,-1.59
1,-0.03,-0.04,0.99,0.24,0.24,1.16
1,-0.01,-0.02,0.99,0.43,-0.55,-0.37
1,0.02,-0.02,0.99,0.67,0.37,-1.59
1,-0.01,-0.03,0.99,1.34,1.1,2.99
1,0,-0.04,0.99,1.1,0.61,0.43
1,-0.02,-0.03,0.99,1.34,1.4,1.59
1,0,-0.01,0.99,1.59,0.43,-0.61
1,0.01,-0.04,0.99,2.38,0.67,-1.83
1,0,-0.02,1,3.05,0.24,3.23
1,0,-0.05,0.99,4.52,-0.43,1.83
1,-0.01,-0.04,0.99,5,0.98,0.73
1,-0.07,-0.08,0.99,4.39,1.34,-1.34
1,-0.09,-0.03,1,-2.14,0,4.82
1,-0.02,-0.09,0.98,-2.56,4.88,2.38
1,-0.02,-0.08,0.99,-2.2,-2.44,11.17
1,-0.03,-0.04,1,-0.12,0.79,13
1,-0.01,-0.03,0.99,-0.18,0.24,5.74
1,0.01,-0.03,0.99,1.59,-1.71,-0.61
1,-0.02,-0.01,0.99,4.52,-0.31,-1.28
1,0,0,0.99,2.56,-1.89,-7.51
1,0,-0.02,0.99,1.71,0.92,-1.28
1,-0.01,0.01,0.99,-1.46,-0.79,-4.58
1,0,0,1,1.59,-1.04,-7.08
1,-0.04,-0.02,0.99,2.26,1.53,-21.73
1,0,0,0.99,1.83,0.73,-31.49
1,0,0.01,0.99,2.38,0.67,-18.55
1,0.01,0.05,0.99,-0.18,-3.11,-8.61
1,0.04,0.01,0.98,10.44,-1.16,-13.61
1,0.02,-0.04,1,-6.59,-6.16,6.35
1,0.02,-0.02,0.98,-2.08,-0.37,19.47
1,-0.01,0,0.99,2.69,2.75,6.59
1,0.05,-0.01,0.99,3.17,2.01,-0.37
1,0.01,0.01,0.99,3.17,2.62,-5
1,-0.02,0.02,1,2.44,2.2,-13.06
1,0.01,0.04,0.98,-0.06,1.65,-4.82
1,-0.04,0,0.98,1.4,1.71,-6.35
1,-0.06,-0.01,1,5.68,0.92,9.89
1,-0.03,0.01,1,1.16,0.12,-7.14
1,-0.04,-0.03,0.98,0.67,0.12,4.39
1,-0.04,-0.02,0.98,1.1,1.59,-11.17
1,-0.03,-0.05,1,1.83,0.37,1.77
1,-0.08,0,1,1.65,2.01,-3.23
1,0.01,-0.04,0.99,1.4,-0.79,2.56
1,-0.05,-0.01,0.99,3.72,0.79,14.22
1,0,0.01,0.98,5.19,1.1,3.6
1,0.01,-0.06,1,7.93,-0.55,9.7
1,-0.04,-0.12,0.99,11.17,-0.85,5.07
1,-0.02,-0.03,1,-7.87,1.04,-0.18
1,0.02,-0.04,0.98,-9.28,2.87,-11.54
1,-0.02,-0.02,0.98,8.06,0.12,-5.49
1,-0.01,-0.03,1,5.07,-6.9,1.53
1,0.08,0,0.98,2.56,-1.28,-13.85
1,-0.05,-0.07,1,8.85,-1.04,-15.69
1,0,-0.06,0.99,-3.6,2.69,-3.85
1,-0.02,0,0.99,-2.08,0.92,-3.23
1,-0.06,-0.01,1,8.24,0.37,-28.56
1,0.02,0.04,0.94,-13.73,10.13,-30.15
1,0.02,-0.04,0.88,5.13,1.16,-11.23
1,-0.05,-0.03,1,-14.59,4.21,-26.55
1,-0.08,-0.04,1,-1.59,12.51,-35.34
1,-0.06,-0.04,0.99,4.7,1.83,-52.19
1,-0.01,-0.02,1,0.85,1.04,-29.72
1,0.02,-0.01,0.99,1.65,1.89,-18.37
1,-0.12,-0.08,1,2.2,1.28,-28.2
1,0.02,0.01,1,-0.79,0.73,-52.98
1,-0.04,0.01,1,4.15,6.84,-24.23
1,-0.06,-0.04,1,0.18,-2.14,-31.56
1,-0.09,-0.04,0.99,2.14,3.54,-46.45
1,0,0.07,1,10.38,-6.23,-50.48
1,-0.1,0,1,-1.34,-6.53,-65.49
1,0.05,-0.05,0.99,2.08,2.99,-70.62
1,-0.06,-0.01,0.99,-0.24,-1.53,-53.89
1,0,0.01,0.99,-0.06,1.1,-62.81
1,0.01,-0.01,0.99,-0.43,-0.55,-45.23
1,0.05,0.01,1,0.31,-1.1,-37.11
1,0,-0.01,1,-0.37,2.93,-29.42
1,0,0.02,0.99,2.26,2.01,-17.09
1,-0.04,0,0.99,2.14,3.11,-13.73
1,-0.02,0.02,0.99,1.04,-0.18,-12.63
1,-0.05,0.03,0.99,1.34,3.11,-23.5
1,-0.02,0,0.99,0.73,0.12,-25.94
1,0,0,1,1.83,2.81,-23.01
1,0,0,1,-0.98,-0.37,-24.9
1,-0.03,0,0.98,1.59,0.37,-24.17
1,-0.03,0.01,0.99,0.98,0,-11.29
1,-0.01,0.01,0.99,2.14,1.28,-8.06
1,-0.01,0.02,0.99,1.53,2.14,-18.86
1,0,0.02,0.99,0.55,0.18,-12.33
1,-0.01,0.02,0.99,2.38,0.79,-3.3
1,-0.01,0.02,0.99,3.72,0,1.28
1,-0.01,0.02,1,4.03,0.67,4.27
1,0.01,0.03,0.99,-0.24,2.93,22.16
1,-0.02,0.03,1.01,-2.44,4.94,44.8
1,-0.01,-0.01,0.99,1.59,1.46,54.14
1,0.01,0.04,0.99,5.49,0.37,62.07
1,-0.01,-0.03,0.99,1.16,1.04,78.43
1,-0.03,0,0.99,5.25,-1.1,75.2
1,0.01,-0.02,1,-2.14,0.67,78.92
1,-0.02,0,0.99,-0.31,-0.92,90.58
1,-0.01,-0.01,0.99,1.83,0.31,89.23
1,0,0,1,0,2.38,95.52
1,0,0.03,1,5.37,1.65,86.43
1,0.01,-0.04,0.98,1.59,-0.37,63.78
1,-0.03,0.07,1,2.56,-1.22,71.35
1,0.01,0.01,1,2.08,-3.72,56.95
1,-0.04,0.01,1,2.5,-2.93,53.77
1,-0.01,0.02,1,2.38,-1.89,56.09
1,-0.03,-0.02,0.98,3.48,-0.55,57.56
1,-0.01,0,1,2.99,-0.43,56.82
1,0,-0.01,0.99,1.95,-1.89,60.97
1,0,-0.02,1,1.89,-0.49,54.63
1,-0.03,-0.02,0.99,2.56,-0.73,49.68
1,-0.02,-0.03,1,1.53,0.67,51.94
1,-0.03,-0.03,0.99,2.75,-0.55,47.24
1,0.01,-0.01,0.99,2.14,-1.1,45.23
1,-0.01,-0.02,1,2.2,-0.06,38.76
1,-0.01,-0.02,0.98,1.34,-1.59,41.93
1,-0.01,-0.01,0.99,0.31,-0.79,47.24
1,0,-0.03,0.98,0.31,-1.16,66.89
1,-0.03,-0.02,0.99,0.49,-1.71,64.64
1,-0.02,-0.02,0.99,0.98,-0.73,68.85
1,-0.02,-0.04,0.98,0.49,-0.55,46.88
1,-0.01,-0.04,0.98,1.4,-0.61,41.44
1,-0.01,-0.03,1,2.08,-0.55,39.49
1,-0.02,-0.03,0.98,1.34,0.12,36.56
1,-0.01,0,1,1.71,-0.37,29.97
1,0.01,-0.03,0.98,0.18,-0.61,27.47
1,0,-0.02,1,3.48,-0.24,14.71
1,0.02,-0.03,0.99,-1.16,1.77,35.64
1,-0.02,-0.04,0.97,3.3,-3.11,127.75
1,0,-0.04,0.99,1.59,-2.38,78.25
1,0.03,-0.03,0.99,-3.54,-5.86,46.45
1,-0.03,-0.02,0.98,-10.25,-7.45,46.88
1,-0.02,0,0.99,-10.31,-8.79,30.21
1,-0.03,0,0.97,4.39,-0.31,38.88
1,-0.02,0.01,1,2.38,1.22,33.39
1,-0.03,0.01,0.97,-1.77,-2.81,34
1,-0.02,0,1,7.02,6.59,31.68
1,-0.01,-0.02,1,9.52,5.62,24.6
1,0,-0.02,0.99,1.77,2.32,27.47
1,0,-0.02,0.99,2.26,0.49,36.13
1,0,0,1,-5.49,-4.82,47.61
1,-0.02,0,0.99,-2.5,-5.74,35.89
1,-0.03,-0.01,0.98,-9.16,-11.72,54.14
1,-0.02,0.02,1,-5.98,-1.77,39.06
1,-0.01,0.02,0.97,0.98,0.73,40.41
1,-0.02,-0.01,0.99,-2.2,-0.92,42.79
1,-0.03,0.01,0.99,1.59,0.24,46.2
1,0,0,1.01,10.8,10.68,47
1,-0.08,0.01,0.99,-0.12,1.22,52.98
1,-0.03,0.03,1,-2.99,0.61,53.1
1,-0.03,0.01,0.97,4.88,3.48,45.72
1,0.02,-0.02,0.99,1.34,1.71,42.3
1,0.01,-0.02,0.96,-0.98,-1.46,41.5
1,-0.05,0.02,1.02,8.36,9.83,53.04
1,-0.02,0.04,0.98,1.4,6.53,35.22
1,0.01,-0.01,0.99,4.09,1.1,23.44
1,-0.03,0.02,0.98,1.34,2.44,12.88
1,0.02,0,1,7.51,8.73,-1.28
1,0.01,-0.02,1,3.42,2.38,-1.46
1,0.01,-0.02,0.99,4.7,3.11,-29.42
1,0.02,-0.02,1,2.56,1.83,-28.87
1,0,-0.03,0.99,3.54,0.73,-25.02
1,0.02,-0.02,1,3.42,2.38,-28.81
1,0.02,-0.01,0.99,2.87,1.59,-35.16
1,0.01,-0.04,0.99,2.08,1.46,-38.88
1,0.03,-0.03,0.99,0.31,-1.46,-47.18
1,-0.04,-0.04,1,-1.04,5.19,-44.07
1,0.04,0,0.98,0.55,0.31,-43.88
1,-0.01,-0.03,0.99,0.24,3.11,-41.87
1,0.02,-0.02,0.99,-0.67,0.92,-62.62
1,-0.01,-0.04,1,0.43,1.59,-67.02
1,0.03,-0.01,0.98,1.04,1.59,-68.36
1,0.02,-0.02,1,4.09,1.53,-65.37
1,0,-0.01,1,1.77,0.49,-43.76
1,0.02,-0.01,0.99,1.89,2.75,-38.39
1,0,-0.03,0.99,1.22,-0.06,-21.48
1,0,-0.02,0.99,1.28,2.93,-33.94
1,0,-0.02,0.99,0.37,1.59,-39.79
1,0.01,-0.02,0.98,-0.18,3.42,-38.51
1,0.03,-0.01,0.99,3.85,0.06,-85.21
1,-0.02,-0.04,0.98,0.98,2.26,-137.88
1,0.04,-0.04,0.99,2.14,5.37,-171.2
1,-0.01,-0.01,1,0.18,2.69,-93.26
1,-0.03,-0.01,0.99,2.93,-0.73,-46.75
1,-0.02,-0.01,1,2.81,2.62,-75.56
1,-0.04,0,0.99,4.46,-0.55,-73.97
1,0.04,-0.06,0.99,5.92,2.14,-84.53
1,-0.01,-0.08,0.99,5.07,2.32,-106.2
1,0,-0.01,0.99,4.15,3.3,-139.89
1,-0.01,-0.04,0.98,3.05,2.01,-95.83
1,-0.03,0,0.99,2.44,2.08,-92.77
1,-0.04,0,0.99,0.85,0.61,-76.97
1,-0.02,-0.02,0.98,4.82,2.44,-62.62
1,-0.03,-0.01,0.99,2.01,1.04,-46.08
1,-0.05,-0.01,1,2.87,2.32,-73.43
1,-0.01,-0.03,1,4.94,-0.06,-87.95
1,-0.03,0.02,0.99,3.66,0.49,-77.33
1,-0.03,-0.01,0.99,4.21,2.93,-58.23
1,-0.02,-0.01,0.99,4.82,2.01,-73
1,-0.05,-0.03,1,2.75,0.43,-73.67
1,-0.02,-0.02,1,2.44,2.44,-63.96
1,-0.1,-0.01,0.99,0.67,2.69,-73.79
1,-0.01,0,1,4.21,2.75,-85.63
1,-0.05,0.02,1,1.83,2.14,-101.44
1,-0.02,0.05,1,5.43,0.98,-85.51
1,-0.02,0.02,0.98,0.79,-0.55,-88.75
1,-0.05,-0.01,0.99,1.04,1.28,-100.4
1,-0.06,-0.06,1.04,-4.21,3.48,-118.1
1,-0.04,0.05,0.99,1.77,1.53,-123.96
1,-0.01,0.04,0.99,10.44,3.72,-87.16
1,-0.05,0.03,0.99,-10.5,1.22,-88.44
1,0.09,0.08,0.98,15.69,12.94,-78.86
1,-0.03,0.03,0.99,-3.6,-3.42,-67.08
1,0.02,-0.01,0.99,4.88,3.3,-90.45
1,0,0.04,1,-1.89,-1.04,-80.51
1,0,0.03,1,12.08,4.64,-72.57
1,0,0.06,0.99,4.52,-0.49,-69.27
1,0.01,0.04,0.98,6.65,-0.55,-75.2
1,0.01,0.02,0.99,2.87,-1.34,-52.49
1,-0.03,0.03,0.99,2.75,1.4,-70.01
1,-0.04,0,1,2.56,1.71,-85.94
1,0.01,0.04,0.98,-0.67,-1.46,-83.8
1,0.02,0.02,0.99,4.46,6.1,-49.01
1,0,0.01,0.99,1.4,0.79,-55.36
1,0.03,0.01,1,2.62,3.54,-27.47
1,0.01,0.03,0.98,2.44,4.58,-8.36
1,0.03,0.02,0.99,2.14,3.11,-7.51
1,0.02,0.03,0.99,-3.23,9.89,-19.65
1,0.06,0.02,0.99,3.36,-2.2,-47.85
1,0.02,0,0.99,1.1,9.03,-37.78
1,0.05,0.01,0.98,-1.34,3.23,-36.07
1,0.05,0.01,0.97,-5.19,11.29,-25.88
1,0.05,0.03,0.99,-3.11,7.2,-8.54
1,0.07,0.02,0.99,-0.12,2.75,-13.61
1,0.07,0.03,0.99,-1.34,5,-1.83
1,0.08,0.02,0.99,5.13,-2.38,1.83
1,0.06,0.03,0.98,8.67,-15.26,5.74
1,0.04,0.01,0.99,6.1,-11.54,6.41
1,0.03,0.02,1,-0.79,-19.53,5.07
1,0.05,0.02,0.98,1.22,-2.01,3.54
1,0.02,0.01,1,1.16,0.24,8.12
1,0.03,0.03,0.99,-3.6,-3.48,44.68
1,0.03,0.04,0.99,-6.1,-2.62,85.82
1,0.02,0.02,1.01,0.73,1.1,85.57
1,-0.01,0,0.99,1.04,6.77,115.54
1,-0.02,0.03,0.98,-1.22,2.56,98.82
1,0.01,0.05,1,-0.61,2.87,97.78
1,0,0.04,1,1.04,0.24,100.22
1,-0.01,0.03,1,1.1,-0.55,91.31
1,0,0.03,0.99,2.81,2.01,81.12
1,0.02,0.05,0.99,3.17,-0.06,68.73
1,-0.01,0.03,1,2.69,2.5,77.21
1,0.06,0.05,1,3.6,3.66,130.43
1,-0.01,0.02,1,3.05,-1.34,104.74
1,0,0.01,1.01,0.61,-1.46,138.85
1,0.01,0.04,1.01,2.93,1.16,77.94
1,-0.05,0.05,1,-1.22,-2.44,132.14
1,-0.03,-0.04,0.99,0.92,2.26,127.08
1,0,0.02,1,1.53,-1.71,110.41
1,-0.03,-0.02,0.99,-1.65,-0.79,118.71
1,-0.01,0.01,1,1.04,2.26,62.93
1,-0.04,0.03,1,2.75,2.62,64.39
1,-0.01,0,1,-0.18,-2.75,58.9
1,0,-0.02,0.99,-1.22,-9.22,94.97
1,-0.04,-0.01,1,3.11,3.6,70.62
1,-0.05,0.02,1,1.28,-0.43,74.52
1,-0.1,0.01,1.02,-5.07,-5.43,80.87
1,0.06,-0.12,1.01,7.14,8.12,42.54
1,-0.07,0.07,1,3.91,1.16,79.35
1,-0.07,0,1,1.95,-0.61,25.57
1,0,-0.03,1,2.26,0.49,51.57
1,-0.13,0.07,1.03,2.99,-9.77,37.23
1,0.04,-0.06,1,0.12,-2.69,48.77
1,-0.04,-0.09,0.99,-2.56,-3.6,41.56
1,0,0.01,1,2.99,-0.61,20.08
1,-0.06,0,1,4.27,0.18,10.07
1,0,0.01,1,0.37,-2.14,-11.47
1,-0.05,-0.01,1,2.81,-2.56,15.63
1,0,-0.07,1,1.28,-0.73,-1.16
1,-0.01,0.01,0.99,3.48,0,3.48
1,-0.02,-0.03,1,1.04,1.1,-6.04
1,-0.05,0.01,0.99,3.85,1.04,-0.98
1,0.01,-0.04,0.99,1.34,1.83,7.32
1,-0.03,-0.01,1,2.69,2.93,-4.03
1,-0.03,-0.03,1,0.24,1.34,4.15
1,-0.01,-0.03,1,-0.73,0.06,-3.42
1,-0.02,-0.02,0.99,1.1,1.16,3.05
1,-0.03,-0.02,0.99,-0.31,0.06,-0.79
1,-0.03,0,1,1.46,0.98,2.01
1,-0.02,-0.02,0.99,1.28,2.32,-1.28
1,-0.01,-0.02,1,2.44,1.95,-2.69
1,-0.02,-0.01,0.99,2.99,1.22,-6.71
1,-0.02,-0.02,0.99,2.56,1.4,-5.86
1,-0.04,-0.01,0.99,3.85,2.5,-5.19
1,-0.03,-0.01,1,3.66,1.77,-1.28
1,-0.01,-0.05,0.99,2.87,3.36,-2.93
1,-0.01,-0.03,0.99,3.11,1.71,-3.72
1,-0.03,-0.02,1,2.14,2.87,-8.61
1,-0.03,-0.02,0.99,2.81,2.01,-12.02
1,-0.01,0.02,1.01,3.11,3.3,-9.83
1,-0.03,-0.01,1,-0.79,0.31,-2.38
1,-0.01,-0.04,0.99,1.53,2.08,5.74
1,0.01,-0.06,1,0.49,0.24,0.43
1,-0.02,-0.03,0.99,1.65,0.73,-1.65
1,-0.03,-0.01,0.99,1.77,-0.31,-1.53
1,-0.01,-0.03,0.99,0.61,0.55,-0.85
1,0,-0.06,1,0.24,0.55,-1.89
1,-0.03,-0.09,1.03,3.54,0.24,-1.89
1,-0.01,-0.08,1,3.3,-1.16,-2.38
1,-0.02,-0.03,0.99,0.49,0.31,0
1,-0.02,-0.03,0.99,-0.43,-0.43,0.49
1,-0.02,-0.02,0.99,-0.49,-0.55,0.18
1,-0.02,-0.02,0.99,0.24,-0.06,0
1,-0.02,-0.02,0.99,1.1,-0.49,-0.12
1,-0.02,-0.02,0.99,1.71,0.98,0.37
1,-0.02,-0.02,0.99,0.49,0,0.43
1,-0.02,-0.02,0.99,1.16,0.24,0.24
1,-0.02,-0.02,0.99,2.62,0.98,0.06
1,-0.02,-0.02,0.99,1.95,0.79,0.24
1,-0.02,-0.02,0.99,2.14,0.73,0.06
1,-0.03,-0.02,0.99,0.67,-0.67,0.49
1,-0.02,-0.02,0.99,0.61,-0.18,0.18
1,-0.03,-0.01,0.99,1.89,0.18,0.06
1,-0.02,-0.02,0.99,2.32,1.34,0.12
1,-0.02,-0.02,0.99,2.01,0.98,0.12
1,-0.02,-0.02,0.99,0.18,-0.49,0.67
1,-0.03,-0.01,0.99,1.04,-0.73,0.31
1,-0.03,-0.02,0.99,2.81,1.04,0.12
1,-0.02,-0.02,0.99,2.69,1.46,0.12
1,-0.02,-0.02,0.99,1.1,-0.43,0.37
1,-0.02,-0.02,0.99,0.18,-0.24,0.43
1,-0.03,-0.01,0.99,1.22,-0.18,-0.06
1,-0.03,-0.02,0.99,2.38,1.1,0.06
1,-0.03,-0.02,0.99,2.99,1.28,0.24
1,-0.02,-0.02,0.99,2.08,0.85,0.18
1,-0.03,-0.02,0.99,0.92,-0.61,0.37
1,-0.03,-0.02,0.99,0.37,-0.12,0.43
1,-0.03,-0.02,0.99,1.53,0.24,0.49
1,-0.03,-0.02,0.99,3.05,1.1,0.06
1,-0.02,-0.02,0.99,2.01,0.61,0.24
1,-0.02,-0.02,0.99,0.24,-0.24,0.55
1,-0.03,-0.02,0.99,0.61,-0.49,0.24
1,-0.03,-0.01,0.99,2.99,1.53,-0.06
1,-0.02,-0.02,0.99,2.99,1.77,0
1,-0.02,-0.03,0.99,1.46,0,0.31
1,-0.03,-0.02,0.99,-0.67,-0.73,0.61
1,-0.03,-0.01,0.99,1.22,0,-0.12
1,-0.03,-0.02,0.99,2.5,1.53,0.18
1,-0.03,-0.02,0.99,2.08,1.04,0.24
1,-0.03,-0.02,0.99,1.53,0.31,0.37
1,-0.03,-0.02,0.99,-0.31,-0.92,0.31
1,-0.04,-0.01,0.98,2.62,0.55,-0.12
1,-0.03,-0.02,0.99,3.36,2.44,-0.06
1,-0.03,-0.02,0.99,1.59,0.18,0.24
1,-0.03,-0.02,0.99,-0.06,-0.55,0.55
1,-0.03,-0.02,0.99,0.31,-0.61,-0.06
1,-0.03,-0.01,0.99,3.17,1.95,0.12
1,-0.03,-0.02,0.99,2.87,2.01,0.24
1,-0.03,-0.02,0.99,1.04,-0.06,0.37
1,-0.03,-0.01,0.99,-0.06,-1.22,0.31
1,-0.03,-0.02,0.99,2.01,0.37,0.18
1,-0.03,-0.02,0.99,1.95,0.92,0.24
1,-0.03,-0.01,0.99,2.01,0.98,0.18
1,-0.03,-0.02,0.99,2.2,0.67,0.24
1,-0.03,-0.02,0.99,0.37,-0.85,0.55
1,-0.03,-0.02,0.99,0.85,-0.61,0.49
1,-0.03,-0.01,0.99,2.08,1.34,0.18
1,-0.03,-0.02,0.99,2.2,1.22,0.43
1,-0.03,-0.02,0.99,1.95,0.79,0.24
1,-0.03,-0.02,0.99,1.95,0.92,0.49
1,-0.03,-0.02,0.99,0.92,-0.24,0.43
1,-0.03,-0.02,0.99,1.22,-0.06,0.31
1,-0.03,-0.02,0.99,1.59,0.37,0.31
1,-0.03,-0.02,0.99,2.01,0.73,0.24
1,-0.03,-0.02,0.99,1.16,-0.12,0.24
1,-0.03,-0.01,0.99,1.53,0.49,0.12
1,-0.03,-0.02,0.99,1.53,0.18,-0.06
1,-0.03,-0.02,0.99,1.71,0.18,0.18
1,-0.03,-0.02,0.99,1.16,0.43,0.24
1,-0.03,-0.02,0.99,1.16,0.24,0.24
1,-0.03,-0.02,0.99,0.79,-0.43,0.31
1,-0.03,-0.02,0.99,-0.31,-0.12,1.22
1,-0.03,-0.02,0.99,0.43,-1.89,0.12
1,-0.04,0,0.99,0.49,0.06,0.49
1,-0.04,-0.01,0.99,1.95,1.04,0.49
1,-0.04,-0.01,0.99,1.95,0.98,0.24
1,-0.04,-0.01,0.99,1.95,0.67,0.12
1,-0.03,-0.01,0.99,2.08,0.43,0.06
1,-0.04,-0.01,0.99,1.89,0.06,0.12
1,-0.04,-0.01,0.99,1.59,0.43,0.06
1,-0.04,-0.01,0.99,2.08,0.79,0
1,-0.04,-0.01,0.99,2.2,1.46,0.12
1,-0.03,-0.01,0.99,2.14,0.49,0.06
1,-0.04,-0.01,0.99,1.89,0.92,0.18
1,-0.03,-0.01,0.99,1.53,-0.31,0.24
1,-0.04,-0.01,0.99,2.01,1.1,0.12
1,-0.03,-0.02,0.99,2.26,1.34,0.37
1,-0.03,-0.02,0.99,1.71,1.16,0.31
1,-0.04,-0.02,0.99,1.71,0.12,0.18
1,-0.03,-0.01,0.99,1.59,0.61,0.43
1,-0.04,-0.02,0.99,1.34,0.31,0.24
1,-0.03,-0.02,0.99,1.83,0.67,0.37
1,-0.03,-0.02,0.99,1.71,0.61,0.31
1,-0.03,-0.02,0.99,1.53,0.37,0.43
1,-0.03,-0.02,0.99,1.4,0.43,0.31
1,-0.03,-0.02,0.99,1.46,0.49,0.43
1,-0.03,-0.02,0.99,1.46,0.49,0.49
1,-0.03,-0.02,0.99,1.28,-0.12,0.37
1,-0.03,-0.01,0.99,1.22,-0.12,0.31
1,-0.03,-0.01,0.99,1.71,0.73,0.12
1,-0.03,-0.02,0.99,1.53,0.61,0.24
1,-0.04,-0.01,0.99,1.59,0.37,0.18
1,-0.03,-0.01,0.99,1.83,0.55,0.18
1,-0.03,-0.01,0.99,1.46,0.79,0.31
1,-0.03,-0.01,0.99,1.71,0.43,0.18
1,-0.03,-0.01,0.99,1.77,0.61,0.12
1,-0.03,-0.01,0.99,1.59,0.61,0.31
1,-0.03,-0.02,0.99,1.71,0.61,0.24
1,-0.03,-0.01,0.99,1.16,0.31,0.24
1,-0.03,-0.01,0.99,1.46,0.18,0.37
1,-0.03,-0.02,0.99,1.65,0.31,0.18
1,-0.03,-0.02,0.99,1.95,0.61,0.18
1,-0.03,-0.01,0.99,1.46,0.37,0.31
1,-0.04,-0.01,0.99,1.34,0.12,0.18
1,-0.03,-0.01,0.99,1.71,0.55,0.31
1,-0.03,-0.01,0.99,1.59,0.79,0.31
1,-0.03,-0.01,0.99,1.46,0.24,0.18
1,-0.04,-0.01,0.99,1.46,0.18,0.24
1,-0.04,-0.01,0.99,1.4,0,0.24
1,-0.03,-0.01,0.99,1.28,0.49,0.31
1,-0.03,-0.01,0.99,1.65,0.61,0.31
1,-0.03,-0.01,0.99,1.71,0.43,0.18
1,-0.03,-0.02,0.99,1.16,0.24,0.31
1,-0.04,-0.02,0.99,0.73,-1.1,0.12
1,-0.04,-0.01,0.99,0.98,0,0.24
1,-0.04,-0.01,0.99,2.01,0.67,0.12
1,-0.04,-0.01,0.99,2.38,1.59,0.37
1,-0.04,-0.02,0.99,1.28,-0.06,0.24
1,-0.04,-0.01,0.99,1.04,0,0.24
1,-0.04,-0.01,0.99,1.77,0.24,0.06
1,-0.04,-0.01,0.99,1.34,0.24,0.18
1,-0.04,-0.01,0.99,1.1,0.06,0.06
1,-0.04,-0.01,0.99,1.71,0.73,0.31
1,-0.04,-0.01,0.99,1.71,0.61,0.24
1,-0.04,-0.01,0.99,1.71,0.61,0.43
1,-0.04,-0.01,0.99,1.53,0.55,0.31
1,-0.04,-0.01,0.99,1.89,0.79,0.37
1,-0.04,-0.01,0.99,1.65,0.92,0.37
1,-0.04,-0.01,0.99,1.53,0.43,0.31
1,-0.04,-0.01,0.99,0.67,0.43,0.49
1,-0.04,-0.02,0.99,0.43,0.24,0.79
1,-0.07,0.02,0.97,0.85,1.16,0.73
1,-0.06,-0.06,0.95,1.1,2.01,0.18
1,-0.03,-0.07,0.99,1.65,5.74,-3.05
1,-0.02,-0.04,0.99,0,1.28,-4.52
1,-0.02,0.03,1,0.79,-15.2,-3.23
1,-0.03,-0.03,1,4.21,0.49,-5.92
1,-0.03,0.01,0.99,3.85,-0.43,-5.74
1,-0.02,-0.02,0.99,2.93,-0.37,-3.11
1,-0.03,-0.01,0.99,2.99,-0.37,-2.87
1,-0.04,0,0.99,1.4,-0.85,-2.5
1,-0.04,0,0.99,-0.06,-0.79,-2.99
1,-0.06,0.02,0.99,0.49,-1.4,-1.59
1,-0.05,0,0.99,-1.16,-1.46,-1.4
1,-0.05,-0.01,0.98,-0.85,-2.26,-1.1
1,-0.05,0.01,0.99,-1.04,-2.62,-2.38
1,-0.03,-0.01,0.98,-0.06,-3.36,-2.75
1,-0.05,0.01,0.99,-0.61,-1.77,-2.01
1,-0.04,-0.02,0.99,1.53,-0.12,-0.98
1,-0.06,0.01,0.98,2.2,-0.24,-1.16
1,-0.02,-0.01,0.98,3.72,-0.55,0
1,-0.07,0.02,1,4.09,-0.73,0.92
1,-0.1,0.03,0.99,2.01,-3.91,-0.73
1,-0.06,0.02,0.98,1.16,-2.87,-1.16
1,-0.05,0.01,1,0.92,-3.66,-1.04
1,-0.08,0.02,0.99,1.59,-5.07,-0.12
1,-0.09,0.01,0.98,-0.24,-3.78,1.59
1,-0.11,0.01,0.98,-0.79,-3.48,-0.55
1,-0.11,0,0.99,-0.85,-2.69,3.72
1,-0.15,0.04,0.98,-0.37,-4.09,6.1
1,-0.14,0.04,0.99,-1.16,-1.22,5.8
1,-0.14,0.04,0.99,0.73,-0.18,6.47
1,-0.13,0.02,0.98,-0.18,-0.55,8
1,-0.08,0,0.98,0,2.56,6.96
1,-0.13,0.02,0.98,-0.24,2.87,1.65
1,-0.09,0,0.99,2.38,4.76,0.18
1,-0.09,0.02,1,4.33,3.6,-3.72
1,-0.07,0.01,0.99,3.17,1.4,-6.71
1,-0.03,0.02,0.99,3.17,2.38,-5.74
1,-0.11,0.06,0.98,4.46,-5.62,-6.96
1,-0.05,0.01,0.98,4.03,-8,-4.82
1,-0.11,0.02,1.01,1.59,-5.62,-3.85
1,-0.02,-0.03,0.99,0.06,-9.4,-2.81
1,-0.15,0.04,0.96,-1.83,-7.26,-7.14
1,-0.19,0.06,0.98,0.67,-4.15,-4.52
1,-0.13,0.03,0.99,3.05,-1.4,1.16
1,-0.15,0.05,0.96,0,-6.84,-10.13
1,-0.12,0.03,0.97,-6.41,-2.99,-15.75
1,-0.13,0.07,0.96,-2.56,2.2,-17.03
1,-0.21,0.06,1.01,-0.18,3.48,-9.83
1,-0.19,0.04,0.96,-3.42,0.43,-8.97
1,-0.15,0.06,0.99,-2.75,-0.98,3.3
1,-0.12,0.06,1.01,-4.88,-1.83,5.31
1,-0.16,0.06,0.99,-14.47,-15.01,13.73
1,-0.17,0.13,0.98,-14.65,-24.84,14.71
1,-0.26,0.09,0.89,-8.36,-27.65,21.91
1,-0.22,0.13,0.94,-0.73,-4.82,11.54
1,-0.33,0.08,0.98,3.54,-3.11,20.39
1,-0.26,0.08,0.96,5.74,4.03,19.04
1,-0.24,0.09,0.97,5.55,7.87,11.11
1,-0.22,0.1,0.96,2.62,7.69,10.25
1,-0.23,0.07,0.96,5.19,14.04,12.08
1,-0.2,0.07,0.97,6.1,15.01,7.81
1,-0.21,0.05,0.96,7.87,19.65,8.18
1,-0.18,0.03,0.98,9.95,22.71,11.6
1,-0.1,0.01,0.97,7.32,8.91,16.36
1,-0.16,0.06,0.96,8.48,12.39,9.89
1,-0.08,-0.03,0.99,3.78,5.07,12.21
1,-0.12,0.02,0.99,7.39,6.71,7.75
1,-0.09,0.04,0.96,3.05,9.09,4.21
1,-0.06,-0.01,1,3.85,4.21,6.53
1,-0.1,-0.02,0.98,0.92,2.38,6.53
1,-0.1,0.02,0.97,2.93,0.85,8.48
1,-0.06,0.01,0.96,3.48,4.09,-1.65
1,-0.07,-0.01,1,4.21,0.67,-2.08
1,-0.08,0,0.98,-0.79,0.24,-2.75
1,-0.09,0,0.98,-1.65,-4.7,-0.79
1,-0.12,0.01,0.99,-0.18,-3.91,0.18
1,-0.11,0,0.98,0.92,-0.06,-0.49
1,-0.11,0.01,0.98,1.89,2.62,-0.24
1,-0.09,0.01,0.98,-1.22,0.31,0.06
1,-0.1,0,0.98,-0.31,-1.65,1.4
1,-0.1,0.01,0.99,2.08,0.18,0.31
1,-0.13,0.01,0.94,4.82,-1.83,0.85
1,-0.11,0.01,0.98,6.04,4.46,3.91
1,-0.11,-0.01,0.98,6.71,1.1,11.6
1,-0.1,0,1.01,6.04,4.82,8
1,-0.11,0,0.98,7.45,4.64,14.28
1,-0.08,-0.03,0.98,8.61,4.7,10.38
1,-0.09,-0.02,0.97,-2.56,-4.7,3.97
1,-0.11,-0.03,0.97,-6.1,-19.47,-14.28
1,-0.13,0.05,0.94,-5.07,-8.12,8
1,-0.12,-0.04,1.04,-10.68,17.27,17.03
1,-0.1,0.01,0.96,-2.69,6.65,-2.99
1,-0.1,0.02,0.98,-1.34,-11.72,-0.67
1,-0.13,0.01,0.97,-3.66,-8.61,3.91
1,-0.12,0.05,0.99,-2.69,-13.31,7.14
1,-0.14,0.07,1.06,3.66,25.09,-8.36
1,-0.11,0.08,0.97,-2.26,-28.14,-2.56
1,-0.2,0.01,0.93,-1.28,-42.72,-7.57
1,-0.19,0.02,0.96,3.05,5.49,-17.09
1,-0.19,0.03,0.98,-0.18,1.1,-25.09
1,-0.19,0.01,0.94,0.43,5.19,-8.97
1,-0.18,0.02,0.99,10.19,6.59,1.65
1,-0.18,0.03,0.96,3.11,-2.01,6.04
1,-0.17,0.01,0.98,6.71,4.58,20.02
1,-0.2,-0.01,0.94,12.82,2.32,18.43
1,-0.18,-0.03,0.94,8,1.77,7.51
1,-0.16,-0.02,0.99,6.84,6.53,3.36
1,-0.15,-0.03,0.98,5.92,0.49,3.66
1,-0.19,-0.03,1,5.74,1.71,-3.66
1,-0.18,-0.03,1,5.25,2.69,-5.07
1,-0.17,-0.03,0.97,4.27,4.94,-2.01
1,-0.14,-0.04,0.99,4.76,16.11,-5.92
1,-0.13,-0.03,0.99,3.91,9.09,-3.66
1,-0.12,-0.06,0.96,7.26,5.37,-1.65
1,-0.17,-0.05,0.99,0.31,2.32,-1.4
1,-0.14,-0.05,0.99,3.17,0.61,-1.4
1,-0.15,-0.04,0.99,-4.27,-4.76,1.16
1,-0.16,-0.04,0.97,0.92,-5.62,-1.28
1,-0.11,-0.02,0.92,0.67,-6.77,5.25
1,-0.16,-0.03,0.98,0.49,3.23,0.55
1,-0.11,-0.03,0.98,5.98,4.52,7.93
1,-0.13,-0.04,0.98,0.49,0,4.88
1,-0.12,-0.02,0.98,0.49,-2.44,-1.53
1,-0.15,-0.02,0.97,4.52,-3.48,5.98
1,-0.18,-0.07,0.97,-1.1,-4.46,4.76
1,-0.17,-0.01,0.92,-5.31,-8.18,-8.48
1,-0.17,0,1,-2.87,10.19,-7.02
1,-0.15,0,0.97,-7.2,-6.1,-15.56
1,0.12,0.05,1.01,-5.62,-4.88,-16.66
1,-0.16,0,0.97,-11.96,-5.25,-5.31
1,-0.05,0.05,1.03,-18.37,-1.34,-17.27
1,-0.17,0.04,0.94,-6.9,7.45,-13.73
1,-0.19,0.07,0.96,-15.63,2.62,-8.54
1,-0.17,0.11,0.98,-14.65,3.78,1.71
1,-0.14,0.09,0.92,-0.61,13.24,-7.2
1,-0.11,0.13,0.98,6.41,18.74,-3.6
1,-0.09,0.1,0.97,16.36,19.41,-2.32
1,-0.07,0.09,0.98,12.63,14.47,-1.89
1,-0.08,0.07,0.99,4.82,6.47,3.3
1,-0.05,0.07,0.99,4.58,5.49,-6.29
1,-0.07,0.09,1,3.6,5.37,-1.77
1,-0.04,0.06,0.97,2.14,3.3,-1.59
1,-0.05,0.07,0.97,1.83,2.75,-1.4
1,-0.06,0.06,0.99,1.46,-0.79,-3.05
1,-0.05,0.06,0.97,5,6.65,-2.69
1,-0.01,0.06,0.99,3.3,4.09,-2.56
1,-0.02,0.04,0.98,-1.1,3.91,-2.56
1,0.01,0.02,1,-2.44,6.84,-1.46
1,-0.01,0.05,0.99,-10.13,2.87,-8.3
1,-0.03,0.01,1,-6.53,3.66,-4.21
1,-0.02,0,1,-3.17,8.54,-12.02
1,0.02,0.07,1,1.83,8.97,-17.76
1,0.03,0.07,0.98,11.96,5.37,-5.43
1,0.03,0.1,0.99,4.88,2.87,-7.57
1,0.03,0.09,0.99,2.32,0.79,-13.43
1,0,0.1,0.99,-2.62,-0.24,-32.29
1,0.02,0.08,0.98,1.95,-0.49,-26.49
1,0.03,0.08,0.98,3.3,-0.12,-21.3
1,0.02,0.08,0.99,2.56,-1.22,-23.19
1,0,0.08,0.99,0.61,-1.59,-25.27
1,0.02,0.1,0.98,-5.19,-1.16,-30.33
1,0.03,0.1,0.97,-0.61,0.06,-13.12
1,0.03,0.1,1,-0.24,3.48,-9.95
1,0.03,0.1,0.99,-0.49,4.94,-4.09
1,0.04,0.13,1,1.34,3.48,1.46
1,0.04,0.07,1,0,2.01,10.93
1,0.04,0.11,0.99,-0.43,1.83,8.42
1,0.05,0.09,0.99,-0.12,1.1,1.65
1,0.06,0.12,0.97,-2.2,0.79,1.77
1,0.04,0.17,0.99,-5.31,-1.04,-0.55
1,0.08,0.1,0.97,-3.11,-0.98,5.25
1,0.02,0.16,0.98,-9.03,1.04,3.42
1,0.04,0.13,0.99,-8.12,4.09,3.66
1,0.07,0.15,0.99,-0.24,2.75,3.36
1,0.08,0.13,0.96,-0.12,0.18,7.08
1,0.05,0.18,0.96,1.22,0.55,6.35
1,0.07,0.12,1,5.74,-2.01,11.9
1,0.09,0.14,0.98,17.52,-1.59,18.37
1,0.03,0.11,0.97,10.74,-4.39,16.97
1,0,0.08,0.96,14.16,1.22,16.36
1,-0.07,0.12,0.97,5.49,-1.71,12.82
1,0.03,0.08,0.99,4.46,-5.19,10.38
1,-0.04,0.09,0.98,7.39,-1.53,14.04
1,0.07,0.05,1,5.37,-1.04,13.92
1,0.05,0,0.93,0.67,1.34,8.24
1,-0.02,0.11,0.98,-9.03,2.44,14.04
1,-0.03,0.11,0.97,-4.76,0.73,15.38
1,0.03,0.13,0.97,-4.03,4.76,14.16
1,-0.04,0.11,0.98,4.09,1.65,18.62
1,0.02,0.14,0.99,7.02,1.83,9.22
1,-0.08,0.1,1,8.97,-3.11,11.41
1,0,0.09,0.99,15.99,0.98,4.03
1,-0.12,0.07,0.97,9.64,-9.64,-4.64
1,-0.04,0.02,1,31.13,-9.64,-2.26
1,-0.11,0.02,1,5.43,-20.2,-6.53
1,-0.12,0.01,0.95,-9.89,-30.09,1.22
1,-0.02,-0.04,1.02,4.94,28.32,-34.91
1,-0.04,0.04,1,-4.33,-8.54,0.79
1,-0.04,0.05,0.97,-1.53,-9.77,-13.06
1,-0.06,0.07,0.99,2.81,10.25,30.15
1,-0.08,0.08,1.02,-22.16,12.39,19.59
1,-0.09,0.08,1,-6.29,15.69,10.68
1,0.04,0.16,0.98,-13.49,17.64,7.93
1,-0.02,0.14,1,-17.27,22.77,9.03
1,-0.03,0.14,0.99,-23.93,7.51,-0.61
1,0,0.19,0.94,-10.62,2.38,2.32
1,-0.01,0.13,0.93,-8.54,5.86,1.71
1,-0.04,0.19,1.01,0.73,6.16,2.32
1,-0.03,0.17,0.98,9.89,-2.14,4.58
1,-0.01,0.22,1.02,9.77,-0.49,3.91
1,-0.03,0.15,0.97,8.73,-1.16,10.74
1,-0.06,0.17,0.93,-4.76,-5.8,-0.49
1,-0.09,0.14,1,0.92,-1.83,-1.46
1,-0.04,0.16,0.97,-6.53,4.58,-4.21
1,-0.02,0.15,0.97,9.58,-3.3,1.4
1,-0.03,0.17,1,0.31,-6.47,-2.5
1,-0.01,0.15,0.95,3.78,-4.94,-0.18
1,-0.05,0.15,1.02,-0.37,-8.24,0.98
1,-0.01,0.16,0.92,7.63,-10.07,7.39
1,-0.08,0.14,1.03,-8.18,6.41,-1.22
1,-0.03,0.13,0.94,1.53,4.7,-1.71
1,-0.04,0.14,0.98,-7.69,3.42,-6.1
1,-0.03,0.17,0.98,-20.26,12.39,-10.25
1,-0.03,0.2,0.96,-23.86,8.18,-11.96
1,0.01,0.16,0.95,8.12,0.43,-5.49
1,0.07,0.16,0.97,28.81,5.55,3.54
1,0.05,0.18,1.02,5.19,-0.37,-4.58
1,0.09,0.18,0.92,16.54,-15.56,7.08
1,0.04,0.17,1,1.65,-11.47,3.17
1,0,0.12,0.96,6.35,-10.62,10.31
1,-0.04,0.12,0.97,8.12,-6.29,7.39
1,-0.03,0.13,1,0.24,2.87,5.8
1,0,0.09,0.91,4.52,5.37,6.71
1,-0.06,0.2,1.07,0,0.61,3.6
1,0.02,0.18,0.98,-2.81,8.42,-0.43
1,-0.03,0.22,0.98,-6.47,16.17,-0.18
1,0,0.19,0.96,-2.62,2.44,1.59
1,0.02,0.19,1,-3.48,4.09,4.52
1,0.04,0.17,0.93,-3.05,4.33,4.52
1,0.07,0.19,0.93,-1.77,-1.83,3.66
1,0.07,0.22,0.99,-3.11,1.65,3.91
1,0.06,0.21,0.92,-2.56,-0.92,7.45
1,0.03,0.22,0.96,-5.25,-2.14,7.69
1,0,0.27,0.98,-7.81,-2.69,7.45
1,-0.05,0.23,0.97,-1.4,4.82,6.23
1,-0.04,0.25,0.92,1.34,10.31,5.37
1,0,0.22,0.95,2.87,25.09,2.62
1,-0.03,0.24,1.02,13.55,4.46,14.83
1,0.02,0.21,0.94,2.69,18.01,5.62
1,0.03,0.21,0.98,4.33,-0.06,11.66
1,-0.02,0.19,0.97,4.33,-2.62,11.23
1,0.01,0.18,0.98,1.22,-1.53,5.55
1,0,0.18,0.97,14.22,-8.18,6.53
1,0,0.19,0.97,4.03,-2.08,3.97
1,-0.01,0.19,0.98,3.72,-1.65,2.5
1,-0.02,0.19,0.97,6.77,0.12,2.81
1,-0.02,0.19,0.96,-5.37,3.85,2.75
1,-0.03,0.21,0.96,18.43,-0.67,3.48
1,-0.06,0.2,0.95,13.31,-5.86,8.06
1,-0.07,0.13,0.99,15.44,-3.3,6.16
1,-0.03,0.13,0.97,3.85,-3.78,5.19
1,-0.05,0.2,0.97,-0.67,-1.1,-0.92
1,-0.04,0.1,0.98,21.36,8.85,9.83
1,-0.02,0.13,0.99,18.13,10.07,-3.17
1,0,0.05,0.99,13.98,5.43,-5.31
1,0.04,0.12,1,7.57,2.56,-2.56
1,0.05,0.01,0.98,7.81,11.72,-10.13
1,0.03,0.07,0.98,-0.49,-1.65,-9.46
1,0.02,-0.01,0.98,4.94,0.18,-7.51
1,0,0.1,0.98,3.36,1.22,-5.92
1,0.01,0.02,0.98,1.53,0.18,-2.69
1,0.01,0.05,0.98,2.14,1.28,0.79
1,0.01,0.04,0.99,3.36,-0.61,1.46
1,0,0.05,0.98,3.78,-0.12,-0.73
1,0.02,0.13,0.97,0.49,0.24,-6.77
1,0.02,0.02,0.99,1.65,-0.18,-8.36
1,0.01,0.03,0.99,3.66,1.46,-2.93
1,0.01,0.04,0.99,6.96,1.4,0.37
1,0.01,0.04,0.98,3.17,0.55,0.73
1,0.01,0.04,0.99,2.87,0.24,0.85
1,0.01,0.03,0.99,2.2,0.37,0
1,0.01,0.03,0.99,2.26,0.61,0.31
1,0.01,0.03,0.99,2.08,0.55,0.92
1,0.01,0.03,0.98,2.14,0.18,0.61
1,0.01,0.03,1,1.71,-0.18,0.43
1,0.01,0.03,0.98,1.89,0.31,0.79
1,0.01,0.03,0.99,1.77,0.61,0.24
1,0.01,0.03,0.99,1.71,0.24,0.37
1,0,0.03,0.99,1.65,0.06,1.46
1,0.01,0.03,0.99,2.5,0.31,0.55
1,0,0.03,0.99,2.56,-0.06,-0.18
1,0.01,0.03,0.99,1.89,0.61,0.31
1,0.01,0.03,0.99,2.08,0.18,0.18
1,0.01,0.03,0.99,1.77,0.06,0.24
1,0,0.02,0.99,1.53,0.49,0.67
1,0,0.03,0.99,1.46,0,0.37
1,0,0.02,0.99,1.95,0.79,-0.12
1,0,0.03,0.99,1.71,0.61,0.85
1,0,0.03,0.99,1.71,0.06,0.43
1,0,0.03,0.99,1.46,0.24,0.12
1,0,0.03,0.99,1.53,0.18,0.73
1,0,0.03,0.99,2.14,0.24,0.24
1,0,0.02,0.99,2.08,0.61,0.06
1,0,0.03,0.99,2.2,0.85,0.24
1,0,0.03,0.99,1.83,0.67,-0.06
1,0,0.02,0.99,1.59,0.67,-0.67
1,0,0.02,0.98,0.98,0.85,0.12
1,0.01,0.03,0.99,2.01,0.43,0.55
1,0,0.03,0.99,1.34,0.43,-0.37
1,0.01,0.02,0.99,1.71,0.67,0.31
1,0.01,0.03,0.99,1.95,0.37,0.55
1,0,0.02,0.99,1.65,0.06,0.43
1,0,0.03,0.99,2.01,0.24,0.55
1,0,0.03,0.99,1.65,0.67,0.37
1,0,0.02,0.99,1.34,0.73,0.43
1,0,0.03,0.99,1.59,0.18,0.37
1,0,0.02,0.99,1.89,0.12,0.24
1,0,0.02,0.99,1.53,0.79,0.37
1,0,0.03,0.99,1.59,0.12,0.55
1,0,0.02,0.99,1.71,0.37,0
1,0,0.02,0.99,1.77,1.04,0.24
1,0,0.03,0.99,1.65,0.92,-0.12
1,0,0.02,0.99,1.59,0.37,-0.06
1,0,0.03,0.99,1.95,0.55,0.18
1,0,0.02,0.99,1.16,0.98,0.12
1,0,0.03,0.99,1.65,1.16,0.79
1,0.01,0.03,0.99,0.79,0.79,1.83
1,0.01,0.03,0.99,1.53,0.73,2.26
1,0,0.02,0.99,1.16,1.34,0.98
1,0.01,0.03,0.99,1.53,2.26,1.22
1,0.01,0.02,0.99,5.49,6.1,2.32
1,0.01,0.03,1,3.11,2.75,-2.08
1,-0.26,0.26,1.03,-3.36,1.65,-5.19
1,-0.01,0.08,1.02,7.32,1.71,-3.91
1,0,0.04,0.98,-0.37,1.28,-6.1
1,0.02,0.04,0.99,1.95,-0.85,-7.69
1,0,0.05,0.98,1.65,-4.09,-8.67
1,-0.03,0.02,0.99,6.84,-1.77,-7.14
1,0.01,0,0.99,5,-2.08,-2.81
1,-0.02,-0.01,0.97,-0.18,0.61,-7.75
1,0.01,0.03,1,2.14,1.22,-3.23
1,0,0.03,0.98,2.75,1.77,-6.47
1,0.03,0.04,1,6.65,1.89,-1.89
1,0.01,0.02,0.98,2.69,1.65,-5.07
1,0.04,0.02,1.01,1.16,2.38,-6.04
1,-0.02,0.01,0.97,-0.37,3.97,-6.23
1,0.01,0,0.96,-1.04,2.87,-8
1,0.02,0.01,0.98,3.6,2.62,-3.48
1,0.03,0.02,0.99,0.06,2.01,-6.41
1,0.03,0.02,1,4.76,3.85,-4.52
1,0.04,0.03,0.98,3.05,3.05,-4.33
1,0.01,0.01,1,6.59,3.6,-0.61
1,0.04,0.01,0.99,2.81,3.05,-1.89
1,0.08,0.03,0.99,9.77,2.93,-1.77
1,0.17,0.08,0.97,8.67,3.97,-4.82
1,0.04,0,1,4.82,1.71,1.22
1,0.04,-0.01,0.99,2.08,0,0.85
1,0.03,0,0.98,2.14,-0.18,2.08
1,0.05,-0.01,1,2.14,-0.92,1.16
1,0.04,0,0.99,1.59,0.31,-1.65
1,0.05,-0.01,0.99,1.22,-0.12,-1.22
1,0.04,0,0.99,3.42,0.61,-0.92
1,0.04,0,0.99,2.26,1.28,-1.1
1,0.04,-0.01,0.99,1.95,-0.31,1.28
1,0.04,-0.01,0.99,1.95,0,-0.24
1,0.03,-0.01,0.98,1.22,1.28,-0.24
1,0.05,-0.01,1,0.55,0.98,-0.92
1,0.04,-0.02,0.99,1.59,0.06,1.28
1,0.04,-0.01,0.99,4.94,-2.5,1.65
1,0.04,-0.01,0.99,3.36,-1.04,1.59
1,0.03,-0.01,0.99,1.04,-1.4,0.12
1,0.03,-0.01,0.99,1.83,0.43,0.18
1,0.03,-0.01,0.98,0.85,0.24,1.65
1,0.04,-0.03,0.99,1.65,-1.46,1.83
1,0.07,-0.2,1.02,2.14,0.31,-3.66
1,0.04,0,0.98,1.4,-2.5,0.06
1,0,0.02,0.99,-0.12,-2.62,-1.53
1,0.02,-0.02,0.99,3.11,2.56,-0.24
1,0.03,-0.01,0.99,0.18,0.43,1.53
1,0.06,-0.05,0.99,-0.31,5.43,-17.15
1,-0.01,0.07,0.98,1.71,2.38,-12.08
1,0.04,-0.03,0.99,1.4,-0.92,-0.43
1,0.01,0,0.99,1.22,-0.49,-0.55
1,0.02,-0.01,0.99,4.76,3.66,-1.71
1,0.04,-0.03,0.98,2.5,3.17,0.31
1,0.03,-0.02,0.99,-1.1,-3.17,2.14
1,-0.01,0.16,0.94,0.92,-3.6,-1.04
1,0.01,0.01,1,-0.06,-3.48,-0.67
1,0.02,-0.01,0.99,0.92,-0.49,0.43
1,0.11,-0.16,1.02,4.21,7.69,2.69
1,0.14,-0.16,0.98,2.81,8.42,7.63
1,0.14,-0.02,1.01,-0.98,5.55,5.07
1,0.01,0.05,0.96,-3.6,-9.77,4.7
1,-0.06,0.02,1,-4.09,-14.28,-2.75
1,-0.08,0.1,0.99,-3.05,-7.32,2.2
1,-0.07,0.09,0.98,-7.63,-4.52,5.37
1,-0.03,0.06,0.99,-4.46,-1.34,7.75
1,-0.03,0.05,0.99,-3.91,-4.33,1.34
1,0,0.02,0.98,0.18,1.89,1.89
1,0,0.08,0.97,1.65,1.59,-1.71
1,-0.1,0.09,0.94,0.18,2.75,-12.7
1,-0.01,0.03,1.01,5.98,9.28,-8.97
1,-0.08,0.05,0.99,-5.13,-8,-1.16
1,-0.02,0.08,1,-6.65,-6.53,-8.24
1,-0.04,0.06,0.98,-0.49,3.6,10.44
1,-0.02,0.07,0.98,3.78,0.49,7.45
1,-0.03,0.04,0.97,7.81,11.54,18.07
1,-0.02,0.02,1.02,3.11,6.84,5.49
1,0,0.04,0.97,-0.49,-4.39,1.95
1,0,0.06,1,22.89,-0.67,-5.25
1,-0.01,0,0.99,11.23,0.31,-5.74
1,0.02,0,0.98,-3.42,14.16,-9.83
1,0.02,0.09,0.94,-5.8,18.55,-15.44
1,0.06,0.22,1.06,4.88,11.05,-22.09
1,0.02,0.11,0.99,-5.25,-0.31,8.67
1,0.01,0.03,1,-0.37,-6.65,2.2
1,0.05,0.05,0.96,5.74,-27.34,16.05
1,-0.02,0.03,0.99,-2.99,-17.21,5.74
1,-0.03,0.01,0.97,-9.34,-5.74,5.74
1,-0.06,0.1,1.05,-10.13,-1.65,3.05
1,-0.02,0.04,0.95,9.16,6.71,-0.98
1,-0.03,0.05,0.99,1.89,-0.73,-1.16
1,-0.01,0.04,0.94,-5.13,-1.71,4.09
1,-0.04,0.1,1.01,-6.47,1.1,1.53
1,-0.04,0.06,0.98,-0.49,1.65,1.16
1,-0.04,0.09,0.99,-2.62,2.01,-0.06
1,-0.03,0.07,0.99,-0.37,1.77,-0.79
1,-0.02,0.08,0.98,0.79,3.23,0.67
1,-0.06,0.07,0.98,-2.08,6.96,-2.62
1,-0.01,0.08,0.98,-0.06,2.81,-2.2
2,0.04,0.62,0.8,11.96,5.74,4.46
2,-0.02,0.62,0.72,17.88,7.08,12.08
2,0.02,0.67,0.78,-23.19,-3.66,-0.92
2,-0.03,0.65,0.69,-15.26,-0.24,-0.06
2,-0.05,0.61,0.7,49.26,9.95,2.5
2,0.01,0.64,0.72,7.32,-5.62,0.18
2,0.01,0.62,0.75,-3.78,-1.77,-2.56
2,0,0.61,0.83,-6.1,3.3,-1.16
2,0.01,0.67,0.72,-30.15,-9.22,-10.07
2,0,0.67,0.77,-37.54,-7.26,-12.39
2,0,0.69,0.6,-35.89,-8.73,-9.77
2,0,0.74,0.66,-18.98,-0.61,-4.82
2,-0.02,0.72,0.54,-40.16,-3.05,-2.14
2,0.01,0.78,0.56,-27.71,1.71,1.59
2,0,0.8,0.58,-36.13,-1.59,3.3
2,-0.01,0.8,0.48,-29.17,-0.18,2.62
2,0,0.84,0.51,-23.56,7.26,3.66
2,-0.03,0.88,0.42,-38.76,0.67,1.46
2,-0.01,0.86,0.48,-11.17,18.25,7.57
2,0.01,0.87,0.43,-26.55,4.88,2.69
2,0,0.89,0.36,1.53,8.24,3.6
2,0.01,0.89,0.41,-17.27,3.6,3.05
2,-0.01,0.92,0.37,-16.6,-0.85,2.81
2,-0.01,0.91,0.46,-23.38,4.33,1.46
2,-0.02,0.92,0.29,-26.43,-0.73,0.12
2,-0.03,0.97,0.42,-21.85,3.48,-1.46
2,-0.02,0.94,0.28,-32.65,-3.11,-0.92
2,0.04,0.87,0.2,-12.15,3.97,-0.61
2,0.01,0.95,0.27,-15.08,2.62,-1.22
2,0,0.97,0.19,12.94,0.98,-0.06
2,-0.02,0.92,0.24,28.87,0.61,-1.65
2,0.01,0.95,0.25,-4.58,0.12,0.85
2,0,0.94,0.26,13.55,-0.67,0.67
2,0.02,0.95,0.32,-28.81,-0.67,1.95
2,0,0.95,0.25,12.82,1.34,0.73
2,0,0.92,0.35,-3.11,1.04,-0.79
2,0,0.94,0.29,2.38,0.55,2.2
2,-0.01,0.96,0.2,6.96,-5.13,0.67
2,0.01,0.93,0.31,12.27,3.48,-0.55
2,-0.01,0.94,0.28,-22.52,-1.1,1.83
2,0.01,0.95,0.26,-3.05,2.75,-0.49
2,-0.01,0.95,0.23,-13.61,1.65,1.16
2,0,0.95,0.26,-9.34,4.15,-1.16
2,0,0.95,0.23,-21.61,3.05,-0.55
2,0,0.94,0.24,-25.76,5.49,0.12
2,0,0.98,0.1,-26.25,0.37,-2.01
2,0,0.96,0.18,-2.2,1.77,-1.83
2,0.01,0.97,0.1,-20.2,-3.48,-1.65
2,-0.01,0.98,0.08,-1.28,-1.89,-0.98
2,0.01,0.97,0.15,-2.81,-1.59,2.01
2,-0.02,1,-0.03,-24.6,-8.67,-2.14
2,0,1.03,0.07,11.05,4.64,0.73
2,-0.01,0.95,0.12,25.82,7.2,1.53
2,0,0.98,0.11,8.54,-3.66,0.37
2,0.02,0.96,0.16,26.43,5.98,0.85
2,0.02,0.96,0.17,41.56,1.59,-1.59
2,0.02,0.94,0.24,39.18,4.88,1.1
2,0.01,0.93,0.3,4.46,-0.12,3.97
2,0,0.95,0.25,-8.91,-3.42,0.49
2,0,0.96,0.22,15.99,7.39,-0.98
2,0,0.95,0.21,13.31,2.5,-0.37
2,0.02,0.94,0.28,20.94,5.92,0.31
2,0.01,0.94,0.28,25.15,2.01,0.79
2,0.02,0.92,0.31,22.16,3.85,6.59
2,-0.02,0.92,0.28,54.75,-5.07,-2.38
2,0.02,0.86,0.51,58.53,3.11,-2.5
2,0,0.88,0.44,24.72,-0.43,2.81
2,0,0.87,0.44,30.52,2.2,3.6
2,0.03,0.88,0.52,-9.03,-4.58,-7.63
2,0,0.87,0.44,-22.95,-15.75,-15.99
2,0.04,0.77,0.44,16.85,-10.86,-10.07
2,0.04,0.81,0.5,76.9,5.07,-3.05
2,-0.03,0.77,0.61,75.13,0.06,-2.38
2,0.01,0.74,0.68,64.88,13.67,5.25
2,0.05,0.69,0.73,52.92,5.68,0.12
2,0.07,0.63,0.73,28.63,3.85,1.04
2,0.09,0.63,0.76,30.27,8.06,0.92
2,0.05,0.61,0.83,24.23,4.15,3.11
2,0.05,0.62,0.8,16.66,13.85,9.83
2,0.03,0.57,0.86,-10.01,2.99,7.93
2,0.05,0.61,0.83,-24.72,6.9,10.86
2,0.07,0.63,0.74,-31.49,6.71,6.23
2,0.07,0.67,0.76,-36.62,6.35,7.93
2,0.05,0.71,0.6,-42.18,5.62,3.72
2,0.07,0.73,0.71,-26.79,2.81,3.85
2,0.04,0.75,0.61,-18.01,-0.67,1.59
2,0.04,0.76,0.61,-21.79,-6.1,1.16
2,0.04,0.79,0.52,-33.63,-13.37,-1.89
2,0.04,0.8,0.57,-23.44,0.37,1.04
2,0.05,0.81,0.57,-27.65,-0.43,3.17
2,0.02,0.82,0.52,-19.9,-0.24,0.24
2,0,0.85,0.47,-27.04,2.01,0.12
2,0,0.86,0.43,-14.53,1.4,1.46
2,0.04,0.88,0.46,-14.71,3.66,4.09
2,0.04,0.9,0.44,-34.61,-1.59,3.6
2,0.03,0.9,0.35,-29.3,-6.84,-1.1
2,-0.01,0.93,0.3,-20.32,-0.98,-1.28
2,0.01,0.94,0.31,-9.89,10.19,3.11
2,0.02,0.92,0.31,-11.29,7.45,1.46
2,0.02,0.91,0.32,-13.43,5.49,0.55
2,0,0.91,0.31,-22.09,4.15,-0.55
2,-0.01,0.97,0.2,-16.54,-2.44,-2.44
2,0.08,0.94,0.25,-19.71,2.87,-2.01
2,0.08,0.95,0.22,-22.46,2.2,-0.73
2,0.1,0.96,0.16,-30.76,-2.75,0.85
2,0.07,0.95,0.15,-26.25,2.81,1.28
2,0.06,0.98,0.08,-36.44,2.08,2.32
2,0.02,0.98,0.05,-36.07,-3.66,1.95
2,0.01,0.97,0.03,-25.21,6.9,1.04
2,0.02,0.98,-0.04,-38.45,-1.22,0.85
2,0.01,0.98,-0.05,-24.23,4.39,-0.24
2,0,0.96,-0.05,-37.48,6.77,-1.04
2,0.03,0.95,-0.11,-40.83,7.51,-0.85
2,0.05,0.95,-0.2,-27.89,4.82,-0.92
2,0.05,0.95,-0.24,-31.98,-1.89,-1.16
2,0.05,0.92,-0.22,-28.99,1.65,1.28
2,0.02,0.95,-0.34,-39.73,-10.07,-0.98
2,0.06,0.93,-0.33,-27.71,-2.87,-0.55
2,0.04,0.9,-0.33,-14.1,-6.96,-2.87
2,0.04,0.91,-0.37,-10.8,-9.4,-3.85
2,0.07,0.92,-0.42,-8.18,-6.1,-4.46
2,0.09,0.92,-0.44,-5.86,-4.94,-2.87
2,0.09,0.9,-0.38,26.25,7.81,5.13
2,0.07,0.95,-0.43,51.76,5.86,8.67
2,0.05,0.94,-0.25,76.17,15.38,10.38
2,0.03,0.96,-0.23,56.82,24.05,8.73
2,0.02,0.94,-0.12,79.71,15.08,0.61
2,0.04,0.95,-0.01,63.78,-11.78,-2.08
2,0.03,0.99,0.01,77.21,-4.39,2.08
2,0.01,0.93,0.19,63.9,-0.37,2.62
2,0.02,0.97,0.2,84.17,-5.37,6.96
2,0.01,0.9,0.35,107.18,29.3,17.88
2,0.01,0.89,0.38,79.9,10.8,4.7
2,0,0.81,0.55,111.51,21.12,13.73
2,-0.01,0.75,0.59,84.23,12.63,3.72
2,0.01,0.73,0.64,32.35,-0.49,-3.17
2,-0.02,0.77,0.7,33.2,-2.08,-8.36
2,0.02,0.68,0.68,25.45,5.92,0.43
2,0.03,0.68,0.72,34.73,5.98,3.23
2,0.02,0.65,0.77,18.07,0.61,3.48
2,0,0.59,0.79,10.19,1.71,2.87
2,-0.01,0.61,0.84,-35.52,-7.69,-4.15
2,0,0.64,0.8,-52.49,1.59,-3.97
2,0.03,0.71,0.72,-81.05,-5.31,-11.84
2,0,0.78,0.54,-72.02,-3.97,-9.22
2,0.06,0.82,0.52,-79.77,-14.65,-7.87
2,0.02,0.9,0.37,-69.82,-7.08,-3.48
2,0.02,0.91,0.35,-55.54,-4.27,-1.46
2,0.03,0.92,0.3,-39.49,-3.6,0.06
2,0.04,0.94,0.27,-41.69,-3.91,0.67
2,0.03,0.95,0.22,-31.19,-0.92,2.08
2,0.01,0.95,0.22,-22.77,7.02,2.38
2,0.02,0.97,0.18,-34.3,8.54,2.38
2,0.02,0.95,0.12,-49.99,-6.1,-2.69
2,0.02,0.95,0.1,-8.79,8.12,-0.73
2,0.03,0.96,0.01,-40.22,12.15,-0.73
2,0.04,0.98,-0.06,-39,4.82,-0.61
2,0.04,0.96,0.01,-32.47,13.12,-1.34
2,0.03,0.96,-0.14,-46.88,-7.69,-2.08
2,0.03,0.94,-0.13,-24.29,13.55,-0.85
2,0.04,0.96,-0.19,-34.67,5,-1.04
2,0.04,0.94,-0.26,-42.42,1.77,-2.14
2,0.07,0.93,-0.24,-51.64,2.99,-0.55
2,0.02,0.9,-0.33,-37.29,0.31,2.14
2,0.05,0.91,-0.41,-37.84,2.56,-3.6
2,0.04,0.91,-0.41,13.55,5.25,-1.1
2,0.05,0.9,-0.39,1.65,4.15,-0.85
2,0.04,0.95,-0.43,13,3.6,0.55
2,0.07,0.89,-0.35,22.64,3.66,0.67
2,0.05,0.95,-0.4,83.5,9.64,10.25
2,0.03,0.97,-0.25,45.96,-6.29,7.45
2,0.05,0.95,-0.18,44.25,-11.96,3.36
2,0.01,0.96,-0.11,36.38,-0.61,-1.4
2,0.03,0.97,-0.08,50.78,9.16,4.58
2,0.04,0.98,-0.06,60.61,9.64,0.55
2,0.02,0.99,0.02,52.06,-1.34,-0.67
2,0.06,0.93,0.15,47.55,-0.24,-1.71
2,0.05,0.95,0.19,47.73,-3.23,-1.77
2,0.01,0.97,0.16,35.95,-6.59,-0.61
2,0.02,0.93,0.26,35.77,7.26,0.37
2,0.03,0.93,0.3,32.53,2.56,0.79
2,0.04,0.93,0.3,1.04,-7.81,-3.23
2,0.03,0.92,0.34,23.56,1.46,-1.4
2,0.01,0.94,0.31,5.8,-6.41,-0.67
2,-0.01,0.92,0.33,0.61,-2.26,2.93
2,0,0.91,0.35,18.01,6.1,5.62
2,-0.02,0.92,0.33,10.38,-2.2,0.55
2,-0.03,0.92,0.35,20.32,-15.38,2.08
2,0.01,0.92,0.36,9.16,2.69,3.97
2,0.02,0.9,0.41,-8.36,-5.25,-1.83
2,0.03,0.89,0.38,-16.6,-7.75,-6.65
2,0.04,0.9,0.36,-26.92,-11.11,-7.02
2,0,0.92,0.35,-17.15,-2.69,-2.14
2,0.01,0.92,0.33,-10.01,-1.83,-3.17
2,-0.02,0.93,0.29,-7.51,5.19,0.06
2,-0.03,0.94,0.27,3.36,9.52,1.59
2,-0.04,0.94,0.25,-6.16,5.68,1.22
2,-0.03,0.94,0.26,-9.34,2.99,1.77
2,-0.01,0.94,0.23,-21.85,1.53,2.44
2,0.01,0.96,0.2,-25.02,1.22,1.28
2,-0.01,0.98,0.14,-15.08,5.25,2.08
2,0.02,0.96,0.13,-25.82,9.58,2.38
2,0.05,0.95,0.12,-9.46,11.84,3.23
2,0.02,0.98,0.09,-25.88,7.2,2.69
2,0.03,0.97,0.09,-21.3,6.1,2.69
2,0.02,0.98,0.05,-21.85,3.66,1.65
2,0.03,0.96,0.03,-33.45,0.37,1.65
2,0.02,1.01,-0.08,-36.38,-4.76,-0.31
2,0.03,0.96,-0.05,-23.25,2.08,0.43
2,0.06,1.01,-0.13,-32.59,1.83,-2.44
2,0.01,0.97,-0.12,-23.99,5.43,-0.43
2,0.01,0.95,-0.15,-15.44,7.02,1.71
2,0,0.96,-0.17,-20.02,5.86,4.76
2,0.02,0.96,-0.2,-29.91,7.69,3.42
2,0.02,0.95,-0.28,-54.5,-0.73,0
2,-0.01,0.94,-0.32,-34.67,-1.65,1.59
2,0,0.91,-0.33,-15.81,-0.67,-1.53
2,0.01,0.93,-0.38,-22.28,-2.32,-1.1
2,0,0.89,-0.35,-1.53,1.65,-0.06
2,0.01,0.91,-0.39,-17.4,0.31,-0.85
2,0.02,0.88,-0.39,-27.28,-3.05,3.3
2,-0.01,0.88,-0.44,-1.16,1.89,-0.43
2,0.03,0.89,-0.41,16.78,2.87,-1.4
2,0.01,0.91,-0.44,17.15,-0.37,4.15
2,0,0.91,-0.39,50.29,2.93,4.21
2,0.01,0.93,-0.31,44.98,-1.28,4.39
2,-0.02,0.93,-0.29,63.11,-1.89,2.56
2,-0.01,0.96,-0.22,32.96,-3.36,0.73
2,0,0.97,-0.18,31.74,0.31,1.46
2,-0.01,0.97,-0.14,38.09,1.16,-1.22
2,0.01,0.99,-0.15,31.25,-8.48,-2.62
2,0.01,0.97,-0.05,52.73,-3.42,-0.06
2,0.01,0.95,0.02,42.66,-4.39,-2.87
2,0.02,0.98,0.03,39.06,1.89,-0.67
2,0.03,0.96,0.11,30.58,6.84,2.81
2,0.01,0.97,0.1,26,7.45,3.36
2,0.03,0.96,0.16,20.14,8.79,4.88
2,0.07,0.94,0.18,12.33,-2.01,-2.08
2,0.04,0.95,0.17,8.48,-3.23,-3.6
2,0.03,0.97,0.16,12.51,-4.52,-3.17
2,-0.01,0.97,0.16,11.6,-2.26,-0.79
2,0,0.96,0.21,11.05,-2.5,-0.37
2,-0.02,0.96,0.21,12.15,-4.09,-0.61
2,0,0.94,0.25,4.88,-2.87,0.73
2,0,0.95,0.25,3.78,-5.49,0.06
2,0.04,0.94,0.25,-4.82,-12.39,-2.14
2,0.01,0.94,0.22,-5.98,-12.45,-0.06
2,-0.02,0.94,0.22,-25.45,-14.47,0
2,-0.06,0.97,0.17,-21.97,-9.16,-3.66
2,0.01,0.96,0.17,-23.93,-4.64,-9.58
2,0.02,0.97,0.07,-20.63,2.01,-4.58
2,0.06,0.97,0.12,-6.16,4.03,-0.61
2,0.02,0.96,0.05,-0.79,4.15,1.95
2,0.01,0.99,0.04,-26.06,-3.05,0.92
2,0,0.98,0,0.31,8.54,3.78
2,0.01,0.97,0.06,-13.37,14.34,6.47
2,0.04,1,-0.01,-6.35,10.62,7.45
2,0.02,0.96,0.06,33.69,8.24,-30.52
2,0.02,0.97,0.02,-4.39,-2.44,2.93
2,0.04,1.05,0.03,-0.24,1.04,1.95
2,0.05,1,0.02,0.67,-0.12,5.07
2,0.07,1.01,0.03,8.61,-3.54,1.59
2,0.11,1.01,0.05,7.45,-4.33,-3.72
2,0.1,1.01,0.05,6.59,-8.91,-3.36
2,0.09,0.98,0.09,9.34,-9.95,-5.31
2,0.04,0.99,0.08,11.84,-7.14,-6.23
2,0.02,0.94,0.16,11.29,2.2,-4.94
2,0,0.92,0.08,-13.12,-5.37,-8.06
2,0,0.93,0.13,-11.41,-0.49,-9.34
2,-0.01,0.94,0.12,0.79,8.67,-2.2
2,0,0.93,0.15,-1.16,-0.92,8.3
2,0.04,1,0.08,-0.85,9.58,-2.32
2,0.05,0.96,0.06,5.37,8.48,0.37
2,0.04,1,0.04,-7.32,9.46,7.2
2,0.11,0.99,0.16,-5.19,4.7,8.42
2,0.02,0.93,0.1,-5.07,-1.83,10.99
2,0.02,1.03,-0.02,-5.74,3.3,5.43
2,-0.04,0.9,0.02,6.41,10.44,11.96
2,-0.04,1,0.01,-5.43,3.36,-3.11
2,0.01,0.97,0.12,-8.73,-0.43,2.69
2,-0.07,1.02,-0.03,-18.68,-56.27,27.04
2,-0.04,1,-0.07,23.32,10.25,12.02
2,-0.08,0.97,-0.08,1.34,-9.09,2.99
2,-0.06,1.01,-0.04,1.83,-1.04,-7.08
2,-0.05,0.98,-0.03,7.93,3.85,-4.64
2,-0.07,0.97,-0.03,2.32,0.12,-4.15
2,-0.07,0.98,-0.02,-0.06,-3.05,-2.38
2,-0.07,0.96,0.07,1.65,-0.49,4.7
2,-0.06,0.97,0.1,6.47,4.09,1.46
2,-0.11,1.02,0.02,1.53,1.89,2.32
2,-0.07,1,0.05,6.23,13.43,2.87
2,-0.07,0.99,0.02,3.66,6.1,4.82
2,-0.03,0.93,0.01,9.03,22.77,-1.46
2,-0.06,0.95,0.01,4.39,20.2,-2.99
2,0,1.02,-0.04,19.59,39.25,-17.15
2,0.05,1,0.06,-3.42,2.69,-8.12
2,0.06,0.98,0.06,-2.14,3.11,-1.65
2,0.06,0.97,0.1,2.99,12.45,1.65
2,0.02,0.93,0.04,-2.69,3.72,1.4
2,0.01,0.94,0.04,-2.75,1.65,1.1
2,0.01,0.95,0.04,-0.24,7.08,2.99
2,0.01,0.99,0.04,-3.72,5.31,3.78
2,0.02,0.97,0.05,-0.43,6.41,2.93
2,0.01,1,0.06,-0.18,5.74,6.29
2,-0.03,1,0.05,-0.37,2.99,8.73
2,-0.05,0.98,0.04,3.42,4.64,12.63
2,-0.05,0.96,0.02,-3.23,2.14,7.14
2,-0.03,0.98,0.02,-1.83,5.19,4.33
2,0.01,0.98,0.03,-0.24,5.31,-1.28
2,0.01,1,0.04,-2.87,4.33,2.32
2,0.02,0.98,0.02,-3.17,-1.4,3.78
2,0,0.99,0,2.44,0.31,2.5
2,0.04,0.98,-0.01,-2.01,-6.9,8.91
2,0.09,0.96,0.02,0.31,-7.51,-1.04
2,0.07,1.01,-0.03,9.89,-9.83,-4.58
2,0.06,1,-0.02,8.48,-4.7,-12.94
2,0.04,0.98,0.04,15.81,-4.15,-10.56
2,0,0.98,0.05,11.66,-12.76,-10.56
2,-0.04,0.97,0.03,3.97,-18.25,-2.26
2,-0.05,1.01,0.06,14.71,-1.1,-2.2
2,-0.02,0.97,0.11,11.6,0.67,-6.59
2,-0.03,0.97,0.09,1.4,-9.89,-0.61
2,-0.02,0.95,0.14,4.52,-14.16,4.46
2,-0.04,0.92,0.08,13.18,2.01,-7.08
2,-0.02,0.92,0.14,-0.24,-11.9,4.76
2,-0.06,0.95,0.15,18.31,1.65,-6.1
2,-0.07,0.95,0.15,-7.39,-4.09,-2.5
2,-0.02,0.95,0.1,-41.93,-6.9,-6.16
2,0,0.99,0,-58.11,-16.66,-8.67
2,0.04,1.02,-0.06,-23.56,3.91,-3.78
2,0.02,1,-0.07,2.38,12.15,1.34
2,0.03,0.97,-0.02,12.7,13.31,6.23
2,0.08,0.94,-0.01,23.74,16.11,23.44
2,-0.01,0.92,0,-15.56,2.62,5.49
2,0.03,1.01,0,-18.19,8.3,2.01
2,0.02,1.02,-0.03,-22.28,8.91,10.68
2,-0.02,1,-0.1,9.22,9.95,6.16
2,-0.05,0.97,-0.08,-14.65,-2.2,5.86
2,-0.03,1.02,-0.09,-2.26,3.05,-0.79
2,-0.03,1,-0.09,13.12,5.98,0.73
2,-0.02,1.01,-0.08,11.29,2.26,-0.37
2,-0.01,0.97,-0.04,12.15,1.65,2.01
2,-0.03,1,-0.02,13.12,2.93,-0.31
2,-0.02,1.03,-0.03,26.12,2.69,-1.59
2,-0.06,1.06,0,39.18,-4.27,-3.05
2,-0.09,0.97,0,38.39,-5.49,4.09
2,-0.03,0.97,0.14,51.45,2.2,-3.54
2,-0.03,0.89,0.14,28.87,1.04,-1.89
2,-0.04,0.98,0.21,35.16,5.86,-4.15
2,-0.01,0.91,0.24,30.27,14.28,1.28
2,0.03,0.89,0.29,55.36,17.94,1.1
2,-0.02,0.8,0.36,40.47,11.66,-0.18
2,0.01,0.84,0.42,18.98,0.49,-1.59
2,0.05,0.9,0.46,29.42,11.29,-5.25
2,0.05,0.86,0.44,5.62,-0.61,-0.18
2,0.02,0.86,0.43,29.42,1.95,3.54
2,0.01,0.88,0.49,25.57,3.54,0.79
2,-0.01,0.83,0.54,38.88,3.23,5.86
2,0,0.82,0.52,22.28,9.22,3.05
2,-0.01,0.83,0.55,18.68,6.41,3.48
2,0.01,0.79,0.56,19.59,2.81,4.39
2,0.04,0.81,0.59,-7.02,-6.16,5.49
2,-0.01,0.8,0.59,13.92,-4.27,7.69
2,-0.01,0.78,0.61,8.79,1.04,2.69
2,0,0.83,0.54,20.57,-1.53,0.79
2,-0.02,0.77,0.62,6.77,-2.2,-4.03
2,0.01,0.76,0.65,10.99,11.17,-2.87
2,0.01,0.75,0.6,11.29,-0.06,3.54
2,-0.01,0.74,0.67,12.39,0.67,3.11
2,-0.01,0.73,0.66,12.76,3.85,1.1
2,-0.01,0.73,0.65,15.14,5.55,1.95
2,-0.02,0.72,0.67,9.03,1.65,-0.31
2,-0.01,0.72,0.67,8.18,0.37,1.53
2,0,0.72,0.68,6.47,2.01,-0.18
2,0,0.7,0.69,7.75,9.52,3.78
2,0,0.71,0.7,2.38,8.18,4.39
2,0.01,0.7,0.69,5.74,4.46,3.3
2,-0.01,0.69,0.69,4.76,3.23,0.61
2,0,0.7,0.68,4.76,2.2,-0.12
2,0.02,0.69,0.7,6.71,2.99,2.32
2,0,0.68,0.69,3.36,0.49,3.78
2,0,0.68,0.72,7.39,2.32,2.38
2,-0.01,0.68,0.69,7.81,3.48,-1.16
2,0.03,0.68,0.73,-1.46,1.28,2.08
2,-0.01,0.68,0.72,-5.74,0.67,3.05
2,0.01,0.68,0.74,-11.66,3.05,-1.89
2,0,0.7,0.7,-25.09,-1.4,-3.05
2,0.02,0.71,0.7,-42.3,-2.93,-5.19
2,0,0.7,0.59,-40.95,-10.44,-6.84
2,-0.03,0.79,0.56,-21.42,-0.24,2.2
2,0.04,0.82,0.59,-72.14,-21.36,4.88
2,-0.02,0.8,0.46,-32.78,-1.59,1.28
2,0,0.88,0.44,-61.65,-5.68,-0.73
2,-0.02,0.9,0.3,-37.29,-3.6,1.71
2,0.01,0.99,0.38,-23.44,1.89,-2.81
2,0,0.88,0.28,-18.13,-4.03,1.71
2,0,0.93,0.28,-7.51,-3.97,-1.04
2,-0.02,0.93,0.26,-23.32,-9.52,0.31
2,-0.01,0.93,0.27,-10.56,-4.58,4.27
2,-0.04,0.94,0.23,-15.93,-3.48,3.23
2,-0.03,0.99,0.21,-2.44,0.06,-0.55
2,-0.04,0.96,0.2,-7.14,0.61,-1.89
2,-0.03,0.95,0.2,-8.36,-1.04,-0.18
2,-0.03,0.98,0.2,-3.05,3.48,-1.1
2,0,0.98,0.15,-12.82,-6.04,-4.09
2,-0.01,0.98,0.16,-3.17,2.56,-0.24
2,-0.02,0.99,0.16,-8.54,-3.36,-4.21
2,-0.02,0.97,0.12,-2.32,0.06,-1.53
2,-0.02,0.99,0.16,1.77,0.55,-2.08
2,-0.02,1,0.16,6.84,-0.85,2.01
2,0,1.02,0.16,23.62,3.72,-1.71
2,0,1,0.19,15.32,-3.91,0.06
2,0.02,0.96,0.19,26.49,-2.38,-1.22
2,0.02,0.94,0.2,23.62,-0.43,0.79
2,0,0.93,0.21,24.17,2.87,1.89
2,0.01,0.92,0.27,30.21,3.17,-4.64
2,0.03,0.93,0.25,11.05,-3.91,-7.26
2,0.01,1.03,0.36,65.98,-3.97,15.14
2,0,0.85,0.44,7.2,17.88,-17.4
2,-0.02,0.87,0.36,-0.98,-11.11,-4.76
2,0.01,0.87,0.37,-10.13,-13.37,-6.59
2,-0.01,0.89,0.38,7.14,2.2,-3.78
2,-0.03,0.93,0.38,2.99,-3.05,-1.4
2,-0.04,0.88,0.34,2.01,-3.6,0.18
2,0,0.87,0.39,-1.77,-4.27,2.14
2,0.02,0.87,0.42,-4.03,-2.08,0.24
2,0.01,0.86,0.45,6.59,5.37,-1.83
2,0.03,0.89,0.46,7.26,3.05,0.18
2,0.06,0.89,0.47,2.2,2.5,-1.89
2,0.06,0.89,0.45,9.16,-2.26,-2.62
2,0.01,0.88,0.41,0.31,-12.39,-0.24
2,0.01,0.88,0.44,11.29,13.43,-3.23
2,-0.04,0.98,0.25,-16.78,-29.6,7.14
2,-0.02,0.82,0.39,7.14,8.97,2.32
2,-0.07,1.02,0.28,-44.98,-7.39,20.45
2,-0.11,0.83,0.36,28.44,12.7,13.73
2,-0.05,0.96,0.38,-7.14,4.21,4.88
2,-0.01,0.94,0.37,-12.15,-1.1,9.4
2,0,0.94,0.39,-10.5,-0.67,6.1
2,-0.01,0.96,0.39,-8.42,-2.14,3.85
2,-0.02,0.94,0.35,-6.59,-0.98,3.78
2,-0.01,0.94,0.31,-6.77,-2.38,3.91
2,-0.04,1,0.31,2.01,8.42,-4.94
2,0,0.89,0.3,5.62,10.99,5.31
2,0.02,0.87,0.28,0.98,15.63,-0.61
2,0.05,0.86,0.41,4.15,16.3,5.31
2,0.11,0.87,0.34,0.85,5.55,3.66
2,0.04,0.9,0.31,-4.94,-1.71,1.1
2,0.01,0.92,0.32,0.37,-0.12,3.48
2,-0.03,0.94,0.32,-5.37,-2.99,2.87
2,-0.07,0.93,0.29,-2.14,0.55,7.39
2,-0.06,0.95,0.3,-2.26,5.25,3.6
2,-0.02,1,0.3,-2.75,7.93,2.26
2,0,0.93,0.3,0.73,9.52,4.09
2,0.01,0.94,0.31,0.79,8.97,4.27
2,0.03,0.97,0.28,7.39,9.16,4.52
2,0.05,0.92,0.24,-0.61,3.05,6.16
2,0.09,0.97,0.3,6.41,5.55,0.73
2,0.08,0.96,0.29,5.43,-0.24,-1.71
2,0.06,0.97,0.32,10.5,-3.48,-1.77
2,0.04,0.92,0.33,10.07,-9.09,1.46
2,0.03,0.89,0.35,10.13,-6.84,-4.58
2,0.01,0.92,0.38,3.3,-14.04,-7.87
2,-0.04,0.95,0.18,5.07,6.16,-7.63
2,-0.05,0.91,0.35,4.39,-14.53,-6.41
2,-0.01,0.9,0.35,-0.49,-11.9,-8.24
2,-0.02,0.88,0.36,-0.61,-8.61,-4.88
2,-0.03,0.92,0.31,1.59,3.11,-8.61
2,0,0.91,0.38,-6.04,-14.65,-1.83
2,-0.01,0.89,0.32,3.6,-1.22,-2.69
2,0.01,0.95,0.39,-4.33,-5.86,-3.66
2,0,0.89,0.34,1.53,4.33,-6.53
2,0,0.89,0.32,5.07,0.73,-1.65
2,0.02,0.92,0.39,-1.04,-6.16,0.12
2,-0.01,1.01,0.34,-1.65,1.28,-8.67
2,0.04,0.91,0.36,-0.43,-1.65,-4.76
2,0.01,0.92,0.34,-1.71,-3.66,2.99
2,0.02,0.93,0.34,5.49,2.08,-2.38
2,0.03,0.93,0.33,3.91,2.69,-5.92
2,0.04,1.01,0.32,-13.43,-47.79,16.97
2,0.05,0.92,0.4,19.71,8.79,0.24
2,0.01,0.88,0.35,3.11,-17.7,1.65
2,-0.07,0.85,0.32,5,-9.22,5.68
2,-0.13,0.96,0.33,0.37,-0.85,-0.37
2,-0.13,0.94,0.34,2.08,0.73,15.32
2,-0.11,0.93,0.34,-2.2,4.82,3.72
2,-0.02,0.89,0.32,0.92,22.64,-0.49
2,-0.01,0.92,0.34,-6.41,11.47,3.78
2,0,0.91,0.33,-1.77,16.48,3.97
2,0.01,0.93,0.31,-8.79,8.36,5.86
2,0.02,1,0.35,-4.39,8,-5.55
2,0,0.93,0.33,6.29,22.95,-3.48
2,0.02,0.92,0.38,-4.33,11.96,1.77
2,0.02,0.93,0.34,6.59,15.81,4.64
2,0.04,0.93,0.31,-2.26,10.01,1.53
2,0.05,0.91,0.34,-4.76,5.25,2.5
2,0.04,0.93,0.32,-2.62,6.29,3.66
2,-0.02,0.92,0.3,-8.61,-3.23,3.85
2,0,0.93,0.31,1.59,4.82,4.46
2,0.01,0.95,0.31,-0.31,1.59,2.38
2,-0.02,0.92,0.29,1.71,4.64,6.1
2,0.01,0.94,0.29,1.59,5.31,0.37
2,-0.01,0.93,0.31,2.44,5.49,0.67
2,0,0.96,0.28,-5.62,-3.72,-4.03
2,0.05,0.89,0.35,-0.24,4.21,-1.77
2,0.02,0.91,0.31,4.15,-2.69,-1.4
2,0.03,0.95,0.29,2.56,-1.04,-0.67
2,0.01,0.93,0.3,6.96,6.35,1.59
2,0.03,0.92,0.32,-0.85,1.83,0.37
2,0.01,0.92,0.32,4.82,2.26,2.62
2,0.02,0.93,0.3,-0.31,-0.61,0.67
2,-0.01,0.93,0.3,2.75,1.59,3.42
2,0,0.94,0.3,2.44,2.99,4.46
2,0,0.92,0.32,-1.4,4.58,3.36
2,-0.01,0.93,0.31,-2.01,3.17,0.18
2,0,0.93,0.3,-6.29,0.67,-1.53
2,0.01,0.94,0.29,-5.49,2.62,-1.28
2,0.02,0.93,0.29,-8.12,-1.16,-2.26
2,0.01,0.95,0.27,-3.72,0.49,-1.46
2,0.01,0.94,0.25,-1.83,0.31,-1.46
2,0.01,0.94,0.27,1.1,1.71,-0.61
2,0.02,0.93,0.28,0.55,0.55,-1.34
2,0.02,0.94,0.27,2.5,2.62,-0.55
2,0.04,0.94,0.28,-3.78,0.18,-0.85
2,0.03,0.94,0.24,-8.79,-3.6,-1.4
2,0.02,0.95,0.25,-2.62,1.46,-0.06
2,0.03,0.94,0.25,-0.24,-0.49,-1.4
2,0.01,0.95,0.24,5.68,1.71,-0.31
2,0.03,0.95,0.24,-0.85,-1.22,-0.67
2,0,0.95,0.24,-1.4,1.04,0.85
2,0.02,0.95,0.24,3.17,0.12,-1.22
2,0.03,0.95,0.25,4.58,2.62,-1.22
2,0.05,0.95,0.25,-0.18,0.98,-1.34
2,0.02,0.94,0.25,3.17,3.3,0.31
2,0.02,0.95,0.24,-3.05,-1.34,0.06
2,0.04,0.96,0.24,-2.75,-0.92,-0.61
2,0.04,0.95,0.24,0,1.4,1.1
2,0.03,0.94,0.24,-0.43,0.61,0.67
2,0.02,0.95,0.24,-1.89,0.79,0.79
2,0.02,0.96,0.21,-4.76,0.24,-0.12
2,0.05,0.95,0.21,-0.06,2.87,3.17
2,0.04,0.94,0.21,-0.73,-2.81,8.61
2,0.09,0.95,0.25,9.16,6.77,0.79
2,0.08,0.94,0.23,6.29,4.03,1.34
2,0.07,0.95,0.21,4.33,-0.98,3.36
2,0.02,0.96,0.23,7.57,-2.38,2.38
2,0.04,0.95,0.24,6.53,-1.89,-0.18
2,0.03,0.92,0.26,9.89,-1.95,-1.77
2,0,0.94,0.25,4.76,-8.73,-3.17
2,-0.01,0.94,0.26,8.67,-3.36,-3.36
2,-0.03,0.91,0.28,-2.01,-3.54,-3.3
2,0.01,0.95,0.29,-2.93,-1.1,-2.26
2,0.01,0.93,0.28,-11.72,1.83,-2.14
2,0.01,0.94,0.25,-3.48,-0.18,-4.52
2,-0.01,0.96,0.21,7.26,-3.23,-0.31
2,0.03,0.94,0.27,6.23,-2.5,3.3
2,0.01,0.95,0.27,3.85,-2.01,1.28
2,0.02,0.94,0.26,2.26,-2.87,-2.38
2,0.01,0.96,0.25,1.95,-5.31,-2.14
2,0.04,0.93,0.26,-0.43,-5.19,-2.2
2,0.03,0.95,0.25,2.56,-2.38,-1.46
2,0.04,0.92,0.28,1.22,0.85,-0.55
2,-0.01,0.94,0.25,2.38,-4.27,-1.16
2,0.02,0.94,0.27,1.59,-3.54,-0.55
2,0.04,0.95,0.28,-1.22,-3.17,-2.32
2,0.04,0.95,0.24,4.46,-0.61,-5.62
2,0.04,0.92,0.29,3.42,-0.43,-4.09
2,0.05,0.93,0.29,9.22,7.51,-1.71
2,0.05,0.95,0.3,1.22,-6.84,-1.16
2,0.05,0.95,0.26,6.77,3.97,-1.77
2,0.04,0.94,0.3,10.86,5.74,3.66
2,0.02,0.95,0.24,0.67,-8.06,3.85
2,0.06,0.94,0.28,1.65,-1.34,-0.31
2,0.07,0.92,0.31,-0.85,-1.4,-4.52
2,0.05,0.93,0.28,9.03,4.39,4.15
2,0.04,0.94,0.24,1.77,-4.21,0.61
2,0.02,0.94,0.29,2.32,-2.5,4.39
2,-0.01,0.89,0.37,-3.17,-9.95,2.01
2,0,0.95,0.24,11.6,7.39,1.59
2,0.03,0.93,0.29,2.14,0.37,-1.71
2,0.02,0.94,0.28,-0.61,-3.3,-2.75
2,0.03,0.93,0.29,1.65,-0.49,-1.53
2,0.01,0.94,0.3,2.32,-2.99,5.98
2,0.04,0.93,0.31,2.01,-1.28,2.14
2,0.03,0.92,0.31,-2.38,0.98,-1.22
2,0.06,0.94,0.28,-3.36,1.83,-2.99
2,0.06,0.94,0.29,3.72,2.69,-7.45
2,0.05,0.92,0.28,3.23,3.42,-4.82
2,0.05,0.93,0.28,2.01,-0.92,0.06
2,0.05,0.94,0.31,0.67,-3.23,3.6
2,0.07,0.92,0.32,2.44,-1.71,1.95
2,-0.02,0.92,0.3,-10.93,-43.27,9.46
2,0.02,0.92,0.29,7.63,1.04,6.9
2,-0.01,0.95,0.26,0.31,-4.15,3.85
2,0.01,0.93,0.3,4.21,2.69,-0.85
2,0,0.94,0.29,-1.28,-0.49,3.97
2,0.02,0.94,0.28,7.08,5.07,-0.73
2,0.04,0.93,0.28,2.14,0.67,-2.2
2,0.04,0.94,0.29,2.87,0.31,2.93
2,0,0.94,0.27,0.43,-5.25,2.69
2,-0.01,0.93,0.3,-0.24,-3.3,5.31
2,-0.02,0.92,0.31,2.93,-0.31,2.08
2,-0.02,0.9,0.29,-0.67,2.93,1.34
2,-0.05,0.88,0.27,7.02,5.31,0.18
2,-0.01,0.96,0.3,-8.36,5.86,-2.14
2,0.03,1,0.29,-5.62,3.54,-0.67
2,0.02,0.94,0.24,-4.82,-0.61,4.82
2,0.04,0.95,0.27,-2.69,2.26,2.44
2,0.02,0.97,0.23,-3.72,-2.01,-0.43
2,0.02,0.96,0.25,-0.92,-0.31,-0.37
2,0,0.96,0.24,8,0.43,3.6
2,0,0.96,0.29,11.35,2.56,3.23
2,-0.03,0.98,0.27,5.07,0.61,-4.03
2,-0.01,0.97,0.28,0.67,1.59,-3.05
2,-0.03,0.93,0.22,-7.57,-3.36,-2.99
2,-0.02,0.93,0.24,3.78,3.3,-1.71
2,0,0.93,0.26,-0.37,0.12,0.79
2,-0.02,0.96,0.26,3.48,4.64,1.89
2,0.02,0.89,0.28,1.65,8.3,0.85
2,0.01,0.87,0.24,-2.32,5.74,-0.55
2,0.01,0.93,0.29,-6.96,1.16,1.46
2,-0.01,0.94,0.27,-1.34,0.98,4.82
2,-0.03,0.94,0.23,6.47,4.52,7.81
2,-0.02,0.94,0.25,-0.18,0.18,6.29
2,-0.06,0.96,0.21,-2.56,3.97,2.2
2,0,0.95,0.24,7.69,20.63,-0.31
2,0.01,0.96,0.26,-11.11,-1.22,-0.31
2,0.05,0.94,0.29,9.95,23.74,0.12
2,0.08,0.9,0.33,5.55,17.88,0.43
2,0.05,0.93,0.27,-2.08,9.7,6.84
2,0.02,0.94,0.27,-0.06,9.28,5.92
2,0.04,0.95,0.26,0.55,8.85,3.78
2,0.01,0.95,0.26,2.5,9.95,3.3
2,0.03,0.94,0.26,-2.14,7.87,5.55
2,0.05,0.94,0.26,0.06,9.89,4.94
2,0.03,0.94,0.26,0.73,6.1,3.36
2,0.03,0.95,0.25,-3.11,3.6,1.95
2,0.02,0.94,0.25,-1.53,-0.12,0.79
2,0.05,0.94,0.26,-8.73,-5,0.18
2,0.04,0.97,0.2,-1.83,-3.23,0.18
2,0.04,0.94,0.23,5.49,3.66,1.28
2,0.02,0.95,0.23,3.23,1.46,1.16
2,0.02,0.95,0.25,2.32,2.75,1.65
2,0.01,0.95,0.25,3.05,-0.79,1.65
2,0,0.95,0.23,3.54,-3.36,0.12
2,-0.01,0.95,0.25,4.7,1.22,1.34
2,0.01,0.93,0.26,2.32,-0.24,1.04
2,0.02,0.93,0.27,-1.28,-1.28,1.22
2,0.02,0.96,0.23,-11.29,-3.91,0.49
2,-0.02,0.96,0.21,1.16,-1.89,0.55
2,-0.03,0.96,0.21,3.05,-2.14,-1.22
2,0.01,0.95,0.23,7.93,1.53,-1.22
2,0,0.96,0.23,1.77,0.61,-0.98
2,0.04,0.94,0.27,-1.1,1.22,-1.04
2,0,0.94,0.23,-4.82,-2.5,-0.85
2,0.02,0.95,0.24,-4.46,0.12,-0.18
2,0,0.95,0.21,2.87,2.08,0.85
2,0.02,0.95,0.23,0.31,1.16,0.61
2,0.03,0.95,0.23,2.44,1.53,0.18
2,0.03,0.94,0.24,-1.04,0.31,-0.31
2,0.03,0.95,0.24,1.22,2.32,1.16
2,0,0.95,0.23,-2.69,-0.24,2.56
2,0.01,0.96,0.21,-1.59,-0.12,-0.43
2,-0.01,0.96,0.2,6.16,-0.24,-0.61
2,0.02,0.97,0.21,7.51,-0.12,-0.24
2,0,0.95,0.24,15.01,0.67,4.76
2,-0.01,0.94,0.27,13.92,-0.49,3.78
2,0,0.93,0.28,3.78,-1.77,3.17
2,-0.01,0.93,0.28,-2.38,-1.04,-0.61
2,0.01,0.94,0.26,-1.95,1.1,-2.75
2,0,0.96,0.23,-3.72,-0.49,-2.2
2,0,0.95,0.24,10.07,2.93,-1.04
2,0.01,0.95,0.24,20.45,2.5,-1.1
2,0,0.93,0.3,13.06,-0.49,1.28
2,0.01,0.92,0.33,9.7,-1.04,0.24
2,-0.01,0.93,0.3,15.87,-0.31,-0.31
2,-0.02,0.93,0.3,14.16,3.23,-0.12
2,0,0.93,0.33,5.49,2.56,0
2,0,0.91,0.35,21.55,-0.67,-7.51
2,0.04,0.91,0.36,24.41,-7.93,-13.67
2,0.04,0.88,0.41,43.95,1.16,-3.72
2,0.03,0.87,0.46,28.69,-3.66,0.92
2,0.03,0.85,0.49,22.95,3.6,13
2,-0.01,0.88,0.47,-15.87,-2.38,8.36
2,-0.01,0.88,0.46,-28.26,-2.99,-5.92
2,0.03,0.87,0.41,-7.39,6.23,2.56
2,0,0.88,0.41,20.57,9.52,3.3
2,0.01,0.85,0.49,27.4,2.75,1.65
2,0,0.84,0.52,24.29,3.78,1.4
2,0.01,0.84,0.52,10.01,-4.64,-0.73
2,0,0.83,0.51,7.51,-3.6,-2.99
2,0,0.85,0.5,16.3,0.55,-0.67
2,0.01,0.81,0.53,6.84,-6.1,-1.71
2,0.02,0.81,0.55,13.73,-2.56,1.71
2,-0.01,0.81,0.56,3.78,-2.5,1.1
2,0.01,0.81,0.55,5,-0.24,-1.77
2,0,0.82,0.53,3.66,-1.04,0.92
2,0,0.8,0.57,2.87,-0.37,2.5
2,-0.01,0.8,0.56,0.98,-0.98,1.65
2,-0.01,0.82,0.54,-0.12,-1.28,1.16
2,0,0.81,0.56,2.26,0.24,0
2,-0.01,0.81,0.54,3.05,2.32,1.89
2,-0.01,0.8,0.58,-0.67,0.79,0.12
2,0,0.81,0.58,-11.78,-0.37,-0.98
2,-0.02,0.82,0.55,-29.79,-1.53,-2.26
2,0,0.82,0.54,-67.02,-9.28,-9.22
2,0.02,0.87,0.42,-54.69,-2.62,-12.33
2,0.01,0.91,0.36,-58.41,-7.02,-8.12
2,0.04,0.91,0.32,-22.22,7.26,3.42
2,0,0.92,0.26,-23.44,8.36,3.11
2,0.02,0.94,0.22,-42.97,-5.25,0.55
2,-0.01,0.97,0.14,-39.79,8.36,1.95
2,0.02,0.97,0.13,-29.66,11.72,6.29
2,0,0.98,0.04,-28.2,11.35,8.61
2,0.03,0.99,0.05,-28.26,13.73,8.18
2,-0.04,0.98,0.03,-0.12,18.13,14.65
2,0.01,0.96,0.08,1.34,13.24,5.86
2,-0.05,0.88,0.01,11.6,8.97,-5.25
2,-0.01,0.96,0.02,-4.76,3.42,-15.01
2,0.02,1.04,-0.02,-32.47,-3.05,-9.4
2,0.02,1.05,-0.04,-27.65,0.61,-1.04
2,0.04,0.92,-0.02,-10.31,6.35,4.94
2,0,0.99,-0.08,-8.24,5.92,2.62
2,-0.01,0.99,-0.13,-5,2.87,0.67
2,0.01,0.98,-0.07,4.33,3.17,0.18
2,0.02,0.95,-0.07,-7.32,-0.31,0.37
2,-0.01,0.96,-0.05,6.16,3.91,3.05
2,0,1,-0.06,-1.77,1.1,-1.65
2,0.02,0.96,-0.07,0.43,3.17,1.16
2,0.01,0.95,-0.07,0.67,3.6,5.31
2,0.02,0.91,-0.09,-3.05,2.38,6.71
2,-0.06,1.01,-0.16,-8.61,-2.5,-4.33
2,0.03,1.03,-0.11,-3.54,-1.83,-4.33
2,0.05,0.94,-0.08,4.15,0.55,3.23
2,0,1,-0.09,13.06,0.61,1.53
2,0.01,0.97,-0.08,24.23,3.17,2.56
2,0,0.96,-0.06,19.78,0.85,1.46
2,-0.02,1,-0.02,16.36,0.92,1.28
2,0,1,-0.01,19.53,1.28,1.89
2,-0.02,1.02,0,18.86,-2.14,-2.01
2,-0.01,0.96,0.01,17.21,-6.77,-3.48
2,0,1,0.02,24.72,-5.13,-3.23
2,0.03,0.97,0.09,12.27,-7.26,-4.33
2,0.03,1.01,0.07,12.27,-3.36,-1.65
2,0.09,0.99,0.1,10.19,-3.78,-1.28
2,0.1,0.91,0.12,11.29,-4.21,-2.99
2,0.12,0.94,0.12,11.29,-4.27,-9.28
2,0.08,0.97,0.17,7.2,-14.34,-2.01
2,0.03,0.99,0.1,10.07,-15.26,-5.62
2,0.01,0.99,0.1,17.27,-4.82,2.56
2,-0.01,0.98,0.14,19.17,-6.23,-3.11
2,0.02,0.91,0.16,8.73,-8.54,-1.59
2,0.05,0.98,0.22,16.36,2.01,-10.5
2,0.07,0.95,0.23,14.59,-4.46,-1.89
2,0.05,0.93,0.22,8.91,-9.64,-2.56
2,0.02,0.91,0.22,10.86,-6.65,-1.46
2,0.03,0.95,0.27,8.42,11.84,-2.81
2,0.04,0.94,0.27,-7.87,-7.51,0.31
2,0,0.92,0.21,-12.21,-8.3,7.02
2,0,1.01,0.26,-28.99,-7.39,19.84
2,0.02,0.93,0.22,-12.39,-3.97,10.74
2,-0.05,1.01,0.14,-25.57,-8.24,11.66
2,-0.02,0.96,0.14,-8.18,-10.38,-1.28
2,-0.02,0.97,0.15,3.6,10.68,2.69
2,-0.03,0.99,0.09,-6.9,-10.19,5.25
2,-0.01,0.96,0.16,-8.48,-13.31,2.32
2,-0.06,0.97,0.11,0.67,-2.01,5.37
2,-0.05,0.94,0.14,2.14,2.01,2.08
2,-0.05,0.96,0.15,0.79,3.11,2.01
2,0.01,0.93,0.17,2.81,4.46,-2.2
2,-0.02,0.95,0.17,5.74,-0.98,-2.44
2,-0.01,0.96,0.15,-21.73,-44.92,5.62
2,-0.05,1.02,0.09,2.26,-8.67,-3.6
2,-0.06,1.01,0.13,9.22,3.48,4.15
2,-0.04,0.9,0.11,7.32,-0.61,10.8
2,-0.06,1.02,0.15,6.29,3.78,2.56
2,-0.06,0.91,0.13,2.2,2.44,7.39
2,-0.06,0.98,0.17,2.62,4.52,2.44
2,-0.08,0.97,0.1,5.43,6.29,2.75
2,-0.06,0.95,0.14,1.83,14.16,-3.54
2,-0.05,0.97,0.15,-2.26,4.21,-0.43
2,-0.06,0.96,0.14,11.47,27.95,-7.63
2,0.08,0.87,0.26,20.2,42.48,-14.53
2,0.13,0.98,0.14,3.11,3.05,-17.21
2,0.02,1.01,0.18,2.14,4.94,-4.15
2,0.01,0.95,0.17,1.53,0.37,-1.46
2,0.03,0.96,0.21,1.53,0.49,1.77
2,0.03,0.95,0.17,2.14,-0.43,-0.55
2,0.05,0.95,0.22,-7.2,-0.67,-4.27
2,0.03,0.97,0.22,-8.42,-4.82,0.55
2,-0.01,0.96,0.18,2.81,-0.06,-1.95
2,-0.02,0.97,0.18,1.65,-0.61,4.7
2,-0.02,0.96,0.17,7.93,10.68,6.9
